Sensors' Acquisition [Hz]: Acc@26.0 
hh:mm:ss.ms, Annotation , AccX [mg], AccY, AccZ
10:00:36.375,,-18,-23,1062
10:00:36.413,,-18,-23,1063
10:00:36.451,,-18,-23,1063
10:00:36.489,,-18,-24,1063
10:00:36.527,,-17,-23,1062
10:00:36.565,,-18,-23,1063
10:00:36.603,,-18,-24,1063
10:00:36.641,,-18,-23,1063
10:00:36.679,,-18,-23,1063
10:00:36.717,,-19,-23,1063
10:00:36.755,,-18,-24,1062
10:00:36.793,,-17,-23,1063
10:00:36.831,,-18,-23,1062
10:00:36.869,,-17,-23,1063
10:00:36.907,,-18,-23,1062
10:00:36.945,,-18,-23,1062
10:00:36.983,,-18,-23,1062
10:00:37.021,,-17,-23,1062
10:00:37.059,,-18,-23,1062
10:00:37.097,,-18,-23,1062
10:00:37.135,,-18,-23,1063
10:00:37.173,,-18,-23,1063
10:00:37.211,,-19,-23,1062
10:00:37.249,,-17,-23,1062
10:00:37.287,,-18,-23,1063
10:00:37.325,,-18,-23,1062
10:00:37.363,,-18,-23,1062
10:00:37.401,,-18,-23,1062
10:00:37.439,,-18,-23,1062
10:00:37.477,,-18,-23,1062
10:00:37.515,,-18,-23,1062
10:00:37.553,,-18,-23,1063
10:00:37.591,,-18,-24,1063
10:00:37.629,,-18,-23,1062
10:00:37.667,,-18,-23,1062
10:00:37.705,,-18,-23,1063
10:00:37.743,,-18,-23,1062
10:00:37.781,,-18,-23,1062
10:00:37.819,,-18,-23,1063
10:00:37.857,,-18,-24,1062
10:00:37.895,,-18,-23,1062
10:00:37.933,,-18,-24,1062
10:00:37.971,,-18,-23,1063
10:00:38.009,,-18,-23,1062
10:00:38.047,,-18,-23,1063
10:00:38.085,,-18,-23,1062
10:00:38.123,,-18,-23,1063
10:00:38.161,,-18,-23,1062
10:00:38.199,,-18,-23,1062
10:00:38.237,,-18,-23,1062
10:00:38.275,,-18,-23,1062
10:00:38.313,,-18,-23,1063
10:00:38.351,,-17,-23,1062
10:00:38.389,,-18,-23,1063
10:00:38.427,,-18,-23,1062
10:00:38.465,,-18,-23,1063
10:00:38.503,,-18,-23,1062
10:00:38.541,,-18,-23,1062
10:00:38.579,,-18,-23,1062
10:00:38.617,,-18,-24,1062
10:00:38.627,>Jogging,,,
10:00:38.655,,-18,-23,1062
10:00:38.693,,-18,-23,1062
10:00:38.731,,-18,-23,1063
10:00:38.769,,-18,-23,1062
10:00:38.807,,-17,-23,1063
10:00:38.845,,-19,-24,1062
10:00:38.883,,-18,-24,1063
10:00:38.921,,-18,-23,1063
10:00:38.959,,-18,-23,1062
10:00:38.997,,-18,-23,1062
10:00:39.035,,-18,-24,1062
10:00:39.073,,-18,-23,1063
10:00:39.111,,-18,-23,1062
10:00:39.149,,-18,-23,1063
10:00:39.187,,-18,-23,1062
10:00:39.225,,-18,-23,1063
10:00:39.263,,-18,-23,1062
10:00:39.301,,-18,-23,1063
10:00:39.339,,-17,-23,1063
10:00:39.377,,-18,-23,1062
10:00:39.415,,-18,-23,1063
10:00:39.453,,-18,-23,1062
10:00:39.491,,-18,-24,1063
10:00:39.529,,-18,-23,1064
10:00:39.567,,-18,-23,1062
10:00:39.605,,-18,-23,1062
10:00:39.643,,-17,-24,1062
10:00:39.681,,-19,-23,1062
10:00:39.719,,-17,-23,1062
10:00:39.757,,-18,-23,1063
10:00:39.795,,-17,-23,1063
10:00:39.833,,-18,-23,1063
10:00:39.871,,-17,-23,1062
10:00:39.909,,-19,-23,1063
10:00:39.947,,-18,-24,1062
10:00:39.985,,-18,-23,1063
10:00:40.023,,-17,-23,1062
10:00:40.061,,-18,-23,1063
10:00:40.099,,-18,-23,1063
10:00:40.137,,-18,-24,1063
10:00:40.175,,-19,-23,1063
10:00:40.213,,-106,-56,1073
10:00:40.251,,11,20,1042
10:00:40.289,,105,0,1086
10:00:40.327,,147,-80,1132
10:00:40.365,,194,-106,1566
10:00:40.403,,151,81,1433
10:00:40.441,,-300,-42,1866
10:00:40.479,,-341,65,1393
10:00:40.517,,-366,41,817
10:00:40.555,,-71,143,162
10:00:40.593,,457,146,-738
10:00:40.631,,1095,-121,61
10:00:40.669,,549,-543,1917
10:00:40.707,,-805,29,1998
10:00:40.745,,-1299,525,1011
10:00:40.783,,905,243,-435
10:00:40.821,,1340,-338,-617
10:00:40.859,,1020,-725,1432
10:00:40.897,,-316,-325,1998
10:00:40.935,,-1397,322,1998
10:00:40.973,,-788,293,1555
10:00:41.011,,379,225,346
10:00:41.049,,1049,-20,-862
10:00:41.087,,773,-61,171
10:00:41.125,,494,-643,1894
10:00:41.163,,-476,-419,1998
10:00:41.201,,-1035,234,1650
10:00:41.239,,-787,307,727
10:00:41.277,,672,329,-351
10:00:41.315,,1401,-81,-651
10:00:41.353,,1064,-584,1606
10:00:41.391,,-194,-516,1998
10:00:41.429,,-1449,345,1986
10:00:41.467,,-788,537,1138
10:00:41.505,,770,487,-594
10:00:41.543,,1231,-12,-875
10:00:41.581,,1070,-383,1113
10:00:41.619,,170,-467,1998
10:00:41.657,,-1607,336,1998
10:00:41.695,,-1099,494,1660
10:00:41.733,,516,355,343
10:00:41.771,,1509,-42,-851
10:00:41.809,,1236,-441,602
10:00:41.847,,286,-750,1997
10:00:41.885,,-1070,128,1998
10:00:41.923,,-1491,516,1575
10:00:42.052,,1446,-401,166
10:00:42.054,,1446,-401,1934
10:00:42.055,,1068,-811,1934
10:00:42.075,,1068,-811,1934
10:00:42.113,,-130,-209,1998
10:00:42.151,,-1619,607,1957
10:00:42.189,,-1292,736,1078
10:00:42.227,,491,617,-614
10:00:42.265,,1333,-19,-724
10:00:42.303,,1539,-818,1418
10:00:42.341,,650,-676,1998
10:00:42.379,,-1385,498,1989
10:00:42.417,,-1754,720,1499
10:00:42.455,,-182,776,295
10:00:42.493,,1276,306,-955
10:00:42.531,,1779,-457,256
10:00:42.569,,1115,-1153,1982
10:00:42.607,,-711,27,1998
10:00:42.645,,-1987,850,1684
10:00:42.683,,-745,623,1007
10:00:42.721,,1400,349,-860
10:00:42.759,,1504,-177,-280
10:00:42.797,,1278,-712,1699
10:00:42.835,,-129,-515,1998
10:00:42.873,,-1739,748,1903
10:00:42.911,,-1263,484,1297
10:00:42.949,,588,730,-103
10:00:42.987,,1428,171,-1188
10:00:43.025,,1580,-530,975
10:00:43.063,,773,-930,1998
10:00:43.101,,-961,648,1755
10:00:43.139,,-371,702,665
10:00:43.177,,1262,325,-1016
10:00:43.215,,1560,-313,9
10:00:43.253,,1225,-870,1887
10:00:43.291,,99,-362,1998
10:00:43.329,,-1473,422,1907
10:00:43.367,,-1439,673,1195
10:00:43.405,,387,562,-25
10:00:43.443,,1419,6,-637
10:00:43.481,,1468,-566,1024
10:00:43.519,,639,-774,1998
10:00:43.557,,-1038,177,1994
10:00:43.595,,-1866,804,1440
10:00:43.633,,-210,591,639
10:00:43.671,,1589,-41,-489
10:00:43.709,,1445,-431,198
10:00:43.747,,1056,-603,1786
10:00:43.785,,-550,-290,1998
10:00:43.823,,-1951,808,1582
10:00:43.861,,-609,733,591
10:00:43.899,,1554,19,-408
10:00:43.937,,1046,-399,604
10:00:43.975,,-163,-429,1914
10:00:44.013,,-236,213,1514
10:00:44.051,,-83,92,1297
10:00:44.089,,-2,-79,1309
10:00:44.127,,76,93,867
10:00:44.165,,-71,34,949
10:00:44.203,,-53,-111,1093
10:00:44.241,,-4,47,1073
10:00:44.279,,27,-19,1023
10:00:44.317,,-42,-49,983
10:00:44.355,,-99,-10,1031
10:00:44.393,,41,1,1066
10:00:44.431,,-89,-92,1060
10:00:44.469,,-12,-18,1049
10:00:44.507,,39,33,1070
10:00:44.544,,-14,-15,1058
10:00:44.582,,-18,-25,1061
10:00:44.620,,-16,-23,1061
10:00:44.658,,-17,-23,1061
10:00:44.696,,-17,-23,1062
10:00:44.734,,-16,-24,1060
10:00:44.773,,-17,-23,1063
10:00:44.810,,-16,-24,1061
10:00:44.848,,-16,-24,1061
10:00:44.886,,-18,-23,1064
10:00:44.924,,-18,-24,1060
10:00:44.962,,-16,-25,1063
10:00:45.000,,-17,-22,1062
10:00:45.038,,-17,-24,1062
10:00:45.076,,-17,-23,1063
10:00:45.114,,-18,-24,1062
10:00:45.152,,-17,-23,1063
10:00:45.190,,-18,-23,1061
10:00:45.228,,-17,-24,1063
10:00:45.266,,-18,-24,1062
10:00:45.304,,-17,-23,1062
10:00:45.342,,-17,-24,1062
10:00:45.380,,-18,-23,1063
10:00:45.418,,-18,-23,1062
10:00:45.456,,-17,-23,1063
10:00:45.494,,-18,-23,1063
10:00:45.532,,-18,-23,1063
10:00:45.570,,-17,-23,1063
10:00:45.608,,-17,-23,1062
10:00:45.646,,-18,-24,1062
10:00:45.684,,-17,-23,1063
10:00:45.722,,-17,-24,1063
10:00:45.760,,-17,-24,1063
10:00:45.798,,-18,-24,1062
10:00:45.836,,-17,-24,1062
10:00:45.874,,-17,-23,1063
10:00:45.912,,-17,-24,1063
10:00:45.950,,-17,-24,1063
10:00:45.988,,-17,-23,1063
10:00:46.026,,-17,-24,1063
10:00:46.064,,-17,-23,1063
10:00:46.102,,-17,-24,1062
10:00:46.140,,-18,-24,1063
10:00:46.178,,-17,-24,1063
10:00:46.216,,-18,-23,1062
10:00:46.254,,-18,-23,1063
10:00:46.292,,-17,-23,1063
10:00:46.330,,-18,-24,1061
10:00:46.368,,-17,-23,1064
10:00:46.406,,-17,-24,1062
10:00:46.444,,693,-225,1064
10:00:46.482,,-494,6,870
10:00:46.520,,-61,142,1080
10:00:46.558,,295,-20,1209
10:00:46.596,,277,-148,1907
10:00:46.634,,-228,129,1618
10:00:46.672,,-837,281,1312
10:00:46.710,,-500,236,421
10:00:46.748,,310,0,-268
10:00:46.786,,1414,-201,-1052
10:00:46.824,,1650,-142,793
10:00:46.862,,-253,405,1998
10:00:46.900,,-1774,905,1988
10:00:46.938,,-1004,739,1163
10:00:46.976,,-31,314,679
10:00:47.014,,1350,12,-425
10:00:47.052,,1630,-491,-930
10:00:47.090,,1391,-300,1273
10:00:47.128,,283,123,1998
10:00:47.166,,-1693,710,1998
10:00:47.204,,-1599,898,1476
10:00:47.242,,-390,657,273
10:00:47.280,,1098,-139,-640
10:00:47.318,,1455,-385,-826
10:00:47.356,,1302,-318,892
10:00:47.394,,449,31,1998
10:00:47.432,,-1268,493,1998
10:00:47.470,,-1556,817,1655
10:00:47.508,,-581,584,18
10:00:47.546,,1118,39,-334
10:00:47.584,,1747,-495,-876
10:00:47.701,,-1968,1035,1670
10:00:47.703,,-1968,1035,1670
10:00:47.704,,-1968,1035,1670
10:00:47.736,,-1968,1035,1670
10:00:47.774,,-608,892,33
10:00:47.812,,1863,-582,-467
10:00:47.850,,1286,-200,433
10:00:47.888,,539,76,1958
10:00:47.926,,-1207,519,1998
10:00:47.964,,-1301,784,1846
10:00:48.002,,-839,668,183
10:00:48.040,,673,326,-269
10:00:48.078,,1735,-424,-738
10:00:48.116,,1698,-481,899
10:00:48.154,,786,-65,1998
10:00:48.192,,-1234,532,1998
10:00:48.230,,-1671,791,1803
10:00:48.268,,-678,686,369
10:00:48.306,,682,327,-269
10:00:48.344,,1752,-370,-921
10:00:48.382,,1586,-305,806
10:00:48.420,,739,-125,1998
10:00:48.458,,-1067,430,1998
10:00:48.496,,-1484,640,1960
10:00:48.534,,-901,735,614
10:00:48.572,,384,393,-280
10:00:48.610,,1498,-217,-1036
10:00:48.648,,1662,-250,-11
10:00:48.686,,1313,-329,1941
10:00:48.724,,-263,366,1998
10:00:48.762,,-1740,636,1906
10:00:48.800,,-1298,746,513
10:00:48.838,,251,400,536
10:00:48.876,,1545,-170,-183
10:00:48.914,,1884,-279,196
10:00:48.952,,1135,-243,1946
10:00:48.990,,-787,320,1998
10:00:49.028,,-1426,568,1649
10:00:49.066,,-694,546,-13
10:00:49.104,,537,219,173
10:00:49.142,,1281,-212,-90
10:00:49.180,,1256,-419,1092
10:00:49.218,,25,-155,1898
10:00:49.256,,-1138,333,1111
10:00:49.294,,-200,102,1108
10:00:49.332,,355,-139,1304
10:00:49.370,,165,0,926
10:00:49.408,,-74,101,1109
10:00:49.446,,29,-20,1037
10:00:49.484,,149,-97,460
10:00:49.522,,-166,76,907
10:00:49.560,,-178,-12,1062
10:00:49.598,,54,1,1036
10:00:49.636,,72,-61,1059
10:00:49.674,,-17,-23,1061
10:00:49.712,,-16,-24,1060
10:00:49.750,,-16,-23,1061
10:00:49.788,,-17,-23,1062
10:00:49.826,,-17,-23,1061
10:00:49.864,,-17,-24,1061
10:00:49.902,,-17,-23,1062
10:00:49.940,,-17,-23,1062
10:00:49.978,,-16,-23,1062
10:00:50.016,,-17,-23,1062
10:00:50.054,,-17,-23,1062
10:00:50.092,,-17,-24,1062
10:00:50.130,,-17,-23,1062
10:00:50.168,,-16,-23,1060
10:00:50.206,,-16,-24,1062
10:00:50.244,,-20,-24,1064
10:00:50.282,,-16,-22,1061
10:00:50.320,,-17,-24,1062
10:00:50.358,,-17,-23,1063
10:00:50.396,,-17,-24,1063
10:00:50.434,,-17,-23,1064
10:00:50.472,,-17,-23,1063
10:00:50.510,,-17,-23,1062
10:00:50.548,,-17,-24,1063
10:00:50.586,,-17,-23,1062
10:00:50.624,,-17,-23,1063
10:00:50.662,,-17,-24,1063
10:00:50.700,,-17,-23,1063
10:00:50.738,,-17,-23,1064
10:00:50.776,,-16,-23,1062
10:00:50.814,,-16,-23,1063
10:00:50.817,>Stationary,,,
10:00:50.852,,-16,-23,1061
10:00:50.890,,-17,-24,1063
10:00:50.928,,-17,-23,1062
10:00:50.966,,-17,-24,1062
10:00:51.004,,-17,-23,1062
10:00:51.042,,-17,-23,1062
10:00:51.080,,-17,-23,1062
10:00:51.118,,-17,-23,1062
10:00:51.156,,-16,-23,1062
10:00:51.194,,-17,-23,1061
10:00:51.232,,-17,-23,1063
10:00:51.270,,-17,-23,1061
10:00:51.308,,-16,-23,1062
10:00:51.346,,-40,-35,1058
10:00:51.384,,1,-11,1061
10:00:51.422,,-34,-44,1070
10:00:51.460,,0,-5,1061
10:00:51.498,,-16,-28,1062
10:00:51.536,,-22,-29,1063
10:00:51.574,,-13,-18,1062
10:00:51.612,,-18,-27,1063
10:00:51.650,,-18,-25,1063
10:00:51.688,,-17,-25,1061
10:00:51.726,,-18,-25,1063
10:00:51.764,,-18,-25,1062
10:00:51.802,,-18,-25,1063
10:00:51.840,,-18,-25,1062
10:00:51.878,,-18,-25,1063
10:00:51.916,,-18,-25,1061
10:00:51.954,,-17,-25,1063
10:00:51.992,,-18,-24,1063
10:00:52.030,,-18,-25,1062
10:00:52.068,,-18,-24,1063
10:00:52.106,,-18,-25,1060
10:00:52.144,,-17,-25,1063
10:00:52.182,,-18,-25,1060
10:00:52.220,,-17,-25,1061
10:00:52.258,,-19,-25,1060
10:00:52.296,,-17,-25,1060
10:00:52.334,,-18,-24,1061
10:00:52.372,,-18,-25,1059
10:00:52.410,,-18,-24,1062
10:00:52.448,,-18,-25,1058
10:00:52.486,,-18,-25,1060
10:00:52.524,,-18,-25,1062
10:00:52.562,,-18,-24,1060
10:00:52.600,,-17,-26,1061
10:00:52.638,,-18,-24,1062
10:00:52.676,,-17,-26,1059
10:00:52.714,,-18,-25,1062
10:00:52.752,,-18,-25,1060
10:00:52.790,,-17,-25,1062
10:00:52.828,,-18,-25,1060
10:00:52.866,,-18,-25,1062
10:00:52.904,,-18,-25,1062
10:00:52.942,,-18,-26,1059
10:00:52.980,,-17,-25,1063
10:00:53.018,,-19,-26,1059
10:00:53.056,,-17,-25,1063
10:00:53.094,,-19,-25,1060
10:00:53.132,,-17,-25,1063
10:00:53.170,,-19,-25,1061
10:00:53.208,,-18,-26,1061
10:00:53.246,,-17,-24,1061
10:00:53.362,,-18,-24,1060
10:00:53.364,,-18,-24,1060
10:00:53.365,,-18,-24,1060
10:00:53.398,,-17,-25,1063
10:00:53.436,,-17,-25,1058
10:00:53.474,,-17,-24,1064
10:00:53.512,,-18,-25,1060
10:00:53.550,,-18,-25,1062
10:00:53.588,,-18,-24,1060
10:00:53.626,,-17,-25,1061
10:00:53.664,,-18,-24,1062
10:00:53.702,,-17,-25,1060
10:00:53.740,,-17,-25,1063
10:00:53.778,,-18,-25,1059
10:00:53.816,,-17,-25,1063
10:00:53.854,,-18,-25,1060
10:00:53.892,,-17,-25,1062
10:00:53.930,,-18,-24,1062
10:00:53.968,,-18,-26,1059
10:00:54.005,,-18,-25,1063
10:00:54.043,,-18,-25,1059
10:00:54.081,,-17,-25,1063
10:00:54.119,,-18,-25,1060
10:00:54.157,,-17,-26,1062
10:00:54.195,,-18,-24,1061
10:00:54.233,,-17,-26,1061
10:00:54.271,,-17,-24,1062
10:00:54.309,,-18,-25,1060
10:00:54.327,<Jogging,,,
10:00:54.347,,-17,-25,1062
10:00:54.385,,-18,-25,1061
10:00:54.423,,-17,-26,1061
10:00:54.461,,-18,-25,1060
10:00:54.499,,-17,-25,1063
10:00:54.537,,-18,-26,1060
10:00:54.575,,-17,-25,1063
10:00:54.613,,-18,-25,1060
10:00:54.651,,-17,-25,1061
10:00:54.689,,-19,-25,1063
10:00:54.727,,-17,-25,1061
10:00:54.765,,-18,-25,1062
10:00:54.803,,-17,-25,1063
10:00:54.841,,-19,-25,1062
10:00:54.879,,-17,-25,1063
10:00:54.917,,-17,-25,1061
10:00:54.955,,-18,-25,1061
10:00:54.993,,-18,-24,1063
10:00:55.031,,-17,-26,1059
10:00:55.069,,-20,-25,1065
10:00:55.107,,-17,-25,1061
10:00:55.145,,-17,-26,1063
10:00:55.183,,-18,-24,1061
10:00:55.221,,-17,-25,1061
10:00:55.259,,-19,-25,1063
10:00:55.297,,-18,-25,1062
10:00:55.335,,-17,-24,1061
10:00:55.373,,-18,-25,1061
10:00:55.411,,-17,-25,1063
10:00:55.449,,-18,-25,1059
10:00:55.487,,-17,-25,1063
10:00:55.525,,-18,-25,1060
10:00:55.563,,-18,-25,1061
10:00:55.601,,-17,-25,1061
10:00:55.639,,-18,-25,1061
10:00:55.677,,-18,-25,1063
10:00:55.715,,-18,-25,1060
10:00:55.753,,-18,-24,1063
10:00:55.791,,-18,-25,1060
10:00:55.829,,-18,-26,1063
10:00:55.867,,-19,-24,1061
10:00:55.905,,-17,-25,1063
10:00:55.943,,-18,-24,1060
10:00:55.981,,-18,-26,1064
10:00:56.019,,-16,-23,1061
10:00:56.057,,-17,-27,1062
10:00:56.095,,-17,-24,1063
10:00:56.133,,-18,-26,1060
10:00:56.171,,-16,-24,1063
10:00:56.209,,-18,-25,1060
10:00:56.247,,-15,-25,1062
10:00:56.285,,-17,-26,1062
10:00:56.323,,-20,-24,1064
10:00:56.361,,-17,-24,1061
10:00:56.399,,-17,-26,1062
10:00:56.437,,-18,-24,1062
10:00:56.475,,-15,-26,1061
10:00:56.513,,-19,-25,1064
10:00:56.551,,-19,-24,1060
10:00:56.589,,-17,-25,1064
10:00:56.627,,-18,-24,1061
10:00:56.665,,-18,-25,1063
10:00:56.703,,-18,-24,1061
10:00:56.741,,-17,-25,1062
10:00:56.779,,-18,-25,1063
10:00:56.817,,-18,-25,1062
10:00:56.855,,-18,-25,1063
10:00:56.893,,-18,-25,1061
10:00:56.931,,-17,-25,1064
10:00:56.969,,-18,-25,1060
10:00:57.007,,-17,-25,1064
10:00:57.045,,-18,-25,1060
10:00:57.083,,-17,-25,1062
10:00:57.121,,-18,-25,1061
10:00:57.159,,-18,-24,1062
10:00:57.197,,-18,-25,1060
10:00:57.235,,-17,-25,1062
10:00:57.273,,-17,-25,1061
10:00:57.311,,-17,-25,1062
10:00:57.349,,-18,-25,1061
10:00:57.387,,-17,-25,1063
10:00:57.425,,-17,-25,1060
10:00:57.463,,-18,-25,1063
10:00:57.501,,-18,-25,1062
10:00:57.539,,-17,-25,1062
10:00:57.577,,-18,-25,1062
10:00:57.615,,-18,-25,1061
10:00:57.653,,-18,-25,1062
10:00:57.691,,-18,-25,1061
10:00:57.729,,-17,-25,1062
10:00:57.767,,-18,-25,1061
10:00:57.805,,-17,-25,1062
10:00:57.843,,-18,-25,1061
10:00:57.881,,-17,-26,1062
10:00:57.919,,-17,-25,1061
10:00:57.957,,-18,-26,1061
10:00:57.995,,-18,-25,1062
10:00:58.033,,-18,-25,1061
10:00:58.071,,-17,-25,1063
10:00:58.109,,-18,-25,1060
10:00:58.147,,-18,-25,1063
10:00:58.185,,-18,-25,1061
10:00:58.223,,-18,-25,1063
10:00:58.261,,-18,-25,1062
10:00:58.299,,-18,-25,1061
10:00:58.337,,-18,-25,1063
10:00:58.375,,-18,-25,1062
10:00:58.413,,-17,-25,1062
10:00:58.451,,-18,-25,1062
10:00:58.489,,-18,-25,1062
10:00:58.527,,-18,-25,1061
10:00:58.565,,-17,-25,1063
10:00:58.603,,-18,-25,1062
10:00:58.641,,-18,-26,1063
10:00:58.679,,-18,-25,1062
10:00:58.717,,-18,-25,1062
10:00:58.755,,-18,-25,1063
10:00:58.793,,-18,-25,1062
10:00:58.831,,-18,-25,1063
10:00:58.869,,-18,-25,1061
10:00:58.907,,-17,-25,1063
10:00:58.945,,-18,-25,1062
10:00:58.960,<Stationary,,,
10:00:59.088,,-18,-25,1062
10:00:59.090,,-18,-25,1062
10:00:59.091,,-18,-25,1062
10:00:59.097,,-18,-25,1062
10:00:59.135,,-18,-25,1062
10:00:59.173,,-18,-25,1063
10:00:59.211,,-18,-24,1062
10:00:59.249,,-18,-25,1062
10:00:59.287,,-17,-25,1061
10:00:59.325,,-18,-25,1062
10:00:59.363,,-17,-25,1062
10:00:59.401,,-18,-25,1063
10:00:59.439,,-18,-25,1062
10:00:59.477,,-18,-25,1062
10:00:59.515,,-18,-25,1062
10:00:59.553,,-18,-25,1062
10:00:59.591,,-18,-25,1062
10:00:59.629,,-17,-25,1063
10:00:59.667,,-18,-25,1062
10:00:59.705,,-17,-25,1063
10:00:59.743,,-18,-24,1062
10:00:59.781,,-18,-25,1063
10:00:59.819,,-18,-25,1062
10:00:59.857,,-18,-25,1062
10:00:59.895,,-17,-25,1062
10:00:59.933,,-18,-25,1062
10:00:59.971,,-17,-25,1062
10:01:00.009,,-17,-24,1063
10:01:00.047,,-18,-24,1062
10:01:00.085,,-18,-25,1063
10:01:00.123,,-18,-25,1062
10:01:00.161,,-17,-25,1063
10:01:00.199,,-18,-25,1062
10:01:00.237,,-18,-25,1062
10:01:00.275,,-17,-25,1063
10:01:00.313,,-17,-25,1063
10:01:00.351,,-17,-25,1062
10:01:00.389,,-18,-25,1062
10:01:00.427,,-18,-25,1063
10:01:00.465,,-17,-25,1063
10:01:00.503,,-18,-25,1063
10:01:00.541,,-17,-25,1063
10:01:00.579,,-17,-25,1063
10:01:00.617,,-17,-25,1063
10:01:00.655,,-17,-25,1063
10:01:00.693,,-17,-25,1063
10:01:00.731,,-17,-25,1063
10:01:00.769,,-17,-25,1062
10:01:00.807,,-17,-25,1063
10:01:00.845,,-17,-25,1062
10:01:00.883,,-18,-25,1063
10:01:00.921,,-17,-25,1063
10:01:00.959,,-17,-25,1062
10:01:00.997,,-18,-25,1062
10:01:01.035,,-17,-25,1063
10:01:01.073,,-18,-25,1063
10:01:01.111,,-18,-25,1062
10:01:01.149,,-17,-25,1063
10:01:01.187,,-18,-25,1063
10:01:01.225,,-17,-25,1063
10:01:01.263,,-18,-25,1062
10:01:01.301,,-18,-25,1063
10:01:01.339,,-17,-25,1063
10:01:01.377,,-17,-25,1062
10:01:01.415,,-18,-25,1062
10:01:01.453,,-18,-25,1063
10:01:01.491,,-18,-25,1062
10:01:01.529,,-17,-25,1063
10:01:01.567,,-17,-25,1062
10:01:01.605,,-17,-25,1063
10:01:01.643,,-18,-25,1062
10:01:01.681,,-18,-25,1062
10:01:01.719,,-18,-25,1063
10:01:01.757,,-18,-25,1063
10:01:01.795,,-18,-25,1063
10:01:01.833,,-18,-25,1062
10:01:01.871,,-18,-25,1062
10:01:01.909,,-17,-25,1063
10:01:01.947,,-18,-24,1063
10:01:01.985,,-18,-25,1063
10:01:02.023,,-17,-25,1062
10:01:02.061,,-17,-25,1063
10:01:02.099,,-18,-25,1063
10:01:02.137,,-17,-25,1063
10:01:02.175,,-17,-25,1063
10:01:02.213,,-18,-25,1063
10:01:02.251,,-18,-25,1063
10:01:02.289,,-17,-25,1063
10:01:02.327,,-17,-25,1063
10:01:02.365,,-18,-25,1063
10:01:02.403,,-18,-25,1063
10:01:02.441,,-17,-25,1063
10:01:02.479,,-18,-25,1063
10:01:02.517,,-17,-25,1063
10:01:02.555,,-17,-25,1063
10:01:02.593,,-18,-25,1063
10:01:02.631,,-18,-25,1063
10:01:02.669,,-18,-25,1063
10:01:02.707,,-18,-25,1063
10:01:02.745,,-18,-25,1063
10:01:02.783,,-17,-25,1063
10:01:02.821,,-17,-25,1063
10:01:02.859,,-18,-25,1063
10:01:02.897,,-18,-25,1063
10:01:02.935,,-18,-25,1063
10:01:02.973,,-17,-25,1062
10:01:03.011,,-17,-25,1063
10:01:03.049,,-18,-25,1063
10:01:03.087,,-18,-25,1063
10:01:03.125,,-18,-25,1063
10:01:03.162,,-18,-25,1062
10:01:03.200,,-18,-25,1063
10:01:03.238,,-18,-25,1063
10:01:03.276,,-17,-25,1063
10:01:03.315,,-18,-25,1063
10:01:03.353,,-18,-25,1063
10:01:03.391,,-17,-25,1063
10:01:03.428,,-17,-25,1062
10:01:03.466,,-17,-25,1063
10:01:03.504,,-18,-25,1062
10:01:03.542,,-18,-25,1063
10:01:03.580,,-18,-25,1063
10:01:03.618,,-18,-25,1063
10:01:03.656,,-18,-25,1063
10:01:03.694,,-18,-25,1062
10:01:03.732,,-18,-25,1063
10:01:03.770,,-18,-25,1063
10:01:03.808,,-18,-25,1062
10:01:03.846,,-17,-25,1063
10:01:03.884,,-18,-25,1063
10:01:03.922,,-17,-25,1063
10:01:03.960,,-18,-25,1063
10:01:03.998,,-18,-25,1063
10:01:04.036,,-18,-25,1063
10:01:04.074,,-18,-25,1063
10:01:04.112,,-18,-25,1062
10:01:04.150,,-17,-25,1062
10:01:04.188,,-18,-25,1062
10:01:04.226,,-18,-25,1061
10:01:04.264,,-18,-25,1061
10:01:04.302,,-17,-25,1061
10:01:04.340,,-18,-25,1061
10:01:04.378,,-18,-25,1060
10:01:04.416,,-18,-25,1061
10:01:04.454,,-17,-25,1060
10:01:04.492,,-18,-25,1061
10:01:04.530,,-18,-25,1061
10:01:04.568,,-18,-25,1061
10:01:04.606,,-18,-25,1061
10:01:04.644,,-18,-25,1061
10:01:04.682,,-18,-25,1061
10:01:04.812,,-18,-25,1062
10:01:04.813,,-18,-25,1062
10:01:04.815,,-18,-25,1062
10:01:04.834,,-17,-25,1061
10:01:04.872,,-18,-25,1062
10:01:04.910,,-17,-25,1062
10:01:04.948,,-18,-25,1062
10:01:04.986,,-18,-25,1062
10:01:05.024,,-18,-25,1062
10:01:05.062,,-18,-25,1062
10:01:05.100,,-18,-25,1062
10:01:05.138,,-17,-25,1062
10:01:05.176,,-18,-25,1061
10:01:05.214,,-17,-25,1062
10:01:05.252,,-18,-25,1062
10:01:05.290,,-17,-25,1062
10:01:05.328,,-18,-25,1062
10:01:05.366,,-17,-25,1062
10:01:05.404,,-18,-25,1062
10:01:05.442,,-18,-25,1062
10:01:05.480,,-18,-25,1062
10:01:05.518,,-18,-25,1062
10:01:05.556,,-18,-25,1063
10:01:05.594,,-18,-25,1062
10:01:05.632,,-18,-25,1062
10:01:05.670,,-18,-25,1062
10:01:05.708,,-17,-25,1062
10:01:05.746,,-18,-25,1063
10:01:05.784,,-18,-25,1062
10:01:05.822,,-17,-25,1063
10:01:05.860,,-18,-25,1062
10:01:05.898,,-17,-25,1062
10:01:05.936,,-18,-25,1062
10:01:05.974,,-18,-25,1063
10:01:06.012,,-18,-25,1062
10:01:06.050,,-18,-25,1062
10:01:06.088,,-18,-25,1062
10:01:06.126,,-17,-25,1062
10:01:06.164,,-18,-25,1063
10:01:06.202,,-18,-25,1063
10:01:06.240,,-18,-25,1062
10:01:06.278,,-17,-25,1062
10:01:06.316,,-18,-25,1063
10:01:06.354,,-18,-25,1063
10:01:06.392,,-17,-25,1063
10:01:06.430,,-18,-25,1062
10:01:06.468,,-17,-25,1063
10:01:06.506,,-18,-25,1062
10:01:06.544,,-18,-25,1063
10:01:06.582,,-18,-25,1062
10:01:06.620,,-17,-25,1062
10:01:06.658,,-18,-25,1062
10:01:06.696,,-17,-25,1061
10:01:06.734,,-18,-25,1062
10:01:06.772,,-18,-25,1062
10:01:06.810,,-18,-25,1062
10:01:06.848,,-18,-25,1062
10:01:06.886,,-18,-25,1062
10:01:06.924,,-18,-25,1062
10:01:06.962,,-18,-25,1062
10:01:07.000,,-18,-25,1062
10:01:07.038,,-18,-25,1061
10:01:07.076,,-18,-25,1062
10:01:07.114,,-17,-25,1062
10:01:07.152,,-17,-24,1062
10:01:07.190,,-18,-25,1062
10:01:07.228,,-18,-25,1062
10:01:07.266,,-17,-25,1062
10:01:07.304,,-18,-25,1062
10:01:07.342,,-17,-25,1062
10:01:07.380,,-17,-25,1062
10:01:07.418,,-17,-25,1062
10:01:07.456,,-18,-25,1062
10:01:07.494,,-17,-25,1062
10:01:07.532,,-18,-25,1062
10:01:07.570,,-18,-25,1062
10:01:07.608,,-18,-25,1062
10:01:07.646,,-17,-25,1062
10:01:07.684,,-18,-25,1062
10:01:07.722,,-17,-25,1063
10:01:07.760,,-18,-26,1062
10:01:07.798,,-18,-25,1062
10:01:07.836,,-18,-25,1062
10:01:07.874,,-17,-24,1062
10:01:07.912,,-18,-25,1063
10:01:07.950,,-17,-25,1062
10:01:07.988,,-18,-25,1062
10:01:08.026,,-17,-25,1063
10:01:08.064,,-18,-25,1063
10:01:08.102,,-18,-25,1063
10:01:08.140,,-18,-24,1063
10:01:08.178,,-17,-25,1062
10:01:08.216,,-18,-25,1063
10:01:08.254,,-18,-25,1062
10:01:08.292,,-18,-25,1063
10:01:08.330,,-17,-25,1062
10:01:08.368,,-18,-25,1063
10:01:08.406,,-18,-25,1062
10:01:08.444,,-18,-25,1063
10:01:08.482,,-18,-24,1063
10:01:08.520,,-17,-25,1062
10:01:08.558,,-18,-25,1063
10:01:08.596,,-17,-25,1063
10:01:08.634,,-18,-25,1063
10:01:08.672,,-18,-25,1063
10:01:08.710,,-17,-25,1063
10:01:08.748,,-17,-25,1063
10:01:08.786,,-17,-25,1062
10:01:08.824,,-18,-25,1063
10:01:08.862,,-17,-25,1063
10:01:08.900,,-17,-25,1063
10:01:08.938,,-17,-25,1063
10:01:08.976,,-18,-25,1062
10:01:09.014,,-17,-25,1063
10:01:09.052,,-18,-25,1063
10:01:09.090,,-17,-25,1062
10:01:09.128,,-17,-26,1062
10:01:09.166,,-18,-24,1063
10:01:09.204,,-18,-25,1063
10:01:09.242,,-18,-25,1062
10:01:09.280,,-18,-25,1063
10:01:09.318,,-18,-25,1063
10:01:09.356,,-17,-25,1063
10:01:09.394,,-18,-25,1064
10:01:09.432,,-18,-25,1063
10:01:09.470,,-17,-25,1063
10:01:09.508,,-18,-25,1063
10:01:09.546,,-17,-25,1063
10:01:09.584,,-17,-25,1063
10:01:09.622,,-18,-25,1063
10:01:09.660,,-18,-25,1063
