Sensors' Acquisition [Hz]: Acc@26.0 
hh:mm:ss.ms, Annotation , AccX [mg], AccY, AccZ
09:58:33.376,,-17,-24,1062
09:58:33.414,,-18,-23,1062
09:58:33.452,,-18,-24,1062
09:58:33.490,,-17,-24,1062
09:58:33.528,,-18,-24,1062
09:58:33.566,,-17,-24,1062
09:58:33.604,,-18,-23,1062
09:58:33.642,,-18,-24,1062
09:58:33.680,,-18,-24,1063
09:58:33.718,,-18,-24,1062
09:58:33.756,,-17,-24,1062
09:58:33.794,,-17,-24,1061
09:58:33.832,,-18,-23,1062
09:58:33.870,,-18,-23,1062
09:58:33.908,,-18,-24,1062
09:58:33.946,,-18,-23,1062
09:58:33.984,,-18,-24,1062
09:58:34.022,,-18,-24,1062
09:58:34.060,,-18,-24,1062
09:58:34.098,,-18,-24,1061
09:58:34.136,,-18,-24,1062
09:58:34.174,,-18,-23,1062
09:58:34.212,,-17,-24,1062
09:58:34.250,,-18,-24,1063
09:58:34.288,,-18,-24,1062
09:58:34.326,,-18,-24,1062
09:58:34.364,,-18,-24,1062
09:58:34.402,,-18,-24,1062
09:58:34.440,,-17,-24,1062
09:58:34.478,,-18,-24,1062
09:58:34.516,,-17,-24,1062
09:58:34.554,,-18,-23,1063
09:58:34.592,,-18,-24,1062
09:58:34.630,,-18,-24,1063
09:58:34.668,,-18,-24,1064
09:58:34.706,,-18,-24,1061
09:58:34.744,,-18,-24,1062
09:58:34.750,>Stationary,,,
09:58:34.782,,-18,-23,1062
09:58:34.820,,-18,-24,1063
09:58:34.858,,-17,-24,1062
09:58:34.896,,-17,-23,1063
09:58:34.934,,-17,-24,1062
09:58:34.972,,-17,-23,1062
09:58:35.010,,-17,-24,1063
09:58:35.048,,-17,-24,1062
09:58:35.086,,-17,-24,1063
09:58:35.124,,-17,-24,1062
09:58:35.162,,-18,-24,1062
09:58:35.200,,-18,-23,1062
09:58:35.238,,-17,-23,1062
09:58:35.276,,-18,-23,1062
09:58:35.314,,-18,-24,1062
09:58:35.352,,-17,-24,1062
09:58:35.390,,-18,-23,1062
09:58:35.428,,-17,-23,1063
09:58:35.466,,-18,-23,1063
09:58:35.504,,-17,-24,1062
09:58:35.542,,-18,-24,1063
09:58:35.580,,-17,-23,1062
09:58:35.618,,-18,-23,1063
09:58:35.656,,-18,-23,1062
09:58:35.694,,-18,-23,1063
09:58:35.732,,-18,-23,1063
09:58:35.770,,-17,-23,1063
09:58:35.808,,-18,-23,1063
09:58:35.846,,-18,-23,1063
09:58:35.884,,-97,-14,1064
09:58:35.922,,87,27,1107
09:58:35.960,,53,-32,1092
09:58:35.998,,32,-21,1195
09:58:36.036,,-24,32,1164
09:58:36.074,,-109,5,1168
09:58:36.112,,-45,-3,1060
09:58:36.150,,9,-15,984
09:58:36.188,,14,-73,1025
09:58:36.226,,-7,-43,1025
09:58:36.264,,-6,-41,1022
09:58:36.302,,33,-50,1041
09:58:36.340,,67,-37,1044
09:58:36.378,,71,-27,1054
09:58:36.416,,-42,-23,1062
09:58:36.454,,-64,5,1011
09:58:36.492,,16,-13,986
09:58:36.530,,-4,-56,1073
09:58:36.568,,-8,18,1096
09:58:36.606,,338,46,1013
09:58:36.644,,505,-49,955
09:58:36.682,,86,-95,1310
09:58:36.720,,-782,64,1867
09:58:36.758,,-1595,372,1889
09:58:36.796,,-679,422,1105
09:58:36.834,,499,351,-678
09:58:36.872,,1427,-161,-1219
09:58:36.910,,1420,-177,1004
09:58:36.948,,-314,-150,1998
09:58:36.986,,-1167,178,1998
09:58:37.024,,-333,724,991
09:58:37.062,,842,337,-1576
09:58:37.100,,1242,-88,606
09:58:37.138,,302,70,1973
09:58:37.176,,-1387,332,1998
09:58:37.214,,-1021,645,1994
09:58:37.252,,230,585,735
09:58:37.290,,786,373,-1500
09:58:37.328,,1240,-6,-1670
09:58:37.366,,1437,-153,320
09:58:37.404,,367,-55,1994
09:58:37.442,,-1094,63,1998
09:58:37.480,,-1237,546,1998
09:58:37.518,,-164,830,657
09:58:37.556,,853,328,-1148
09:58:37.594,,1294,16,-1586
09:58:37.632,,1353,-287,167
09:58:37.670,,991,-344,1795
09:58:37.708,,-179,-140,1998
09:58:37.746,,-1361,212,1998
09:58:37.784,,-958,555,1775
09:58:37.822,,266,510,161
09:58:37.860,,968,168,-890
09:58:37.898,,1294,-164,-571
09:58:37.936,,1463,-195,605
09:58:37.974,,761,-413,1957
09:58:38.012,,-369,-40,1998
09:58:38.050,,-1289,223,1998
09:58:38.088,,-851,365,1570
09:58:38.126,,163,275,620
09:58:38.164,,538,53,173
09:58:38.202,,919,-101,142
09:58:38.240,,753,-263,477
09:58:38.278,,163,-254,1203
09:58:38.316,,-15,-237,1465
09:58:38.354,,-61,-58,1246
09:58:38.392,,-174,-43,1341
09:58:38.430,,38,-51,1204
09:58:38.468,,57,30,1059
09:58:38.506,,-39,15,1041
09:58:38.544,,10,43,1009
09:58:38.582,,43,-70,1124
09:58:38.620,,-56,-45,941
09:58:38.658,,-47,9,1062
09:58:38.696,,-28,-3,1064
09:58:38.734,,-97,34,1061
09:58:38.772,,53,-54,1061
09:58:38.810,,-11,-31,1060
09:58:38.848,,-18,-24,1062
09:58:38.886,,-17,-23,1061
09:58:38.924,,-18,-23,1062
09:58:38.962,,-18,-23,1061
09:58:39.083,,-18,-23,1061
09:58:39.084,,-18,-23,1061
09:58:39.085,,-18,-23,1061
09:58:39.114,,-18,-23,1061
09:58:39.152,,-18,-23,1061
09:58:39.190,,-18,-23,1061
09:58:39.228,,-18,-23,1060
09:58:39.266,,-18,-23,1059
09:58:39.304,,-15,-24,1060
09:58:39.342,,-20,-22,1057
09:58:39.380,,-20,-23,1059
09:58:39.418,,-17,-23,1060
09:58:39.456,,-18,-23,1061
09:58:39.494,,-17,-23,1061
09:58:39.532,,-18,-23,1060
09:58:39.570,,-17,-23,1060
09:58:39.608,,-17,-23,1060
09:58:39.646,,-18,-24,1060
09:58:39.684,,-18,-23,1061
09:58:39.722,,-18,-23,1060
09:58:39.760,,-17,-23,1061
09:58:39.798,,-18,-24,1061
09:58:39.836,,-17,-24,1061
09:58:39.874,,-18,-23,1061
09:58:39.912,,-18,-24,1060
09:58:39.950,,-17,-24,1061
09:58:39.988,,-18,-23,1060
09:58:40.026,,-18,-23,1060
09:58:40.064,,-18,-23,1060
09:58:40.102,,-18,-23,1061
09:58:40.140,,-18,-23,1061
09:58:40.178,,-18,-23,1061
09:58:40.216,,-18,-23,1061
09:58:40.254,,-17,-24,1061
09:58:40.292,,-18,-24,1061
09:58:40.330,,-18,-24,1061
09:58:40.368,,-18,-23,1061
09:58:40.406,,-18,-23,1061
09:58:40.444,,-18,-23,1061
09:58:40.482,,-17,-23,1060
09:58:40.520,,-17,-23,1061
09:58:40.558,,-18,-23,1061
09:58:40.596,,-18,-23,1060
09:58:40.634,,-18,-23,1061
09:58:40.672,,-18,-24,1062
09:58:40.710,,-18,-23,1061
09:58:40.748,,-18,-23,1061
09:58:40.786,,-18,-23,1062
09:58:40.824,,-18,-23,1061
09:58:40.862,,-18,-23,1062
09:58:40.900,,-18,-23,1061
09:58:40.938,,-18,-23,1061
09:58:40.976,,-17,-23,1062
09:58:41.014,,-18,-23,1062
09:58:41.052,,-18,-23,1061
09:58:41.090,,-18,-23,1062
09:58:41.128,,-18,-23,1062
09:58:41.166,,-18,-23,1061
09:58:41.204,,-18,-23,1062
09:58:41.242,,-18,-23,1062
09:58:41.280,,-18,-23,1061
09:58:41.318,,-18,-23,1062
09:58:41.356,,-18,-24,1061
09:58:41.394,,-18,-23,1061
09:58:41.432,,-17,-23,1062
09:58:41.470,,-17,-24,1062
09:58:41.508,,-17,-23,1062
09:58:41.546,,-18,-23,1061
09:58:41.584,,-18,-24,1061
09:58:41.621,,-18,-24,1061
09:58:41.659,,-18,-23,1061
09:58:41.697,,-18,-23,1061
09:58:41.735,,-17,-23,1061
09:58:41.773,,-18,-23,1062
09:58:41.811,,-18,-24,1061
09:58:41.849,,-18,-23,1061
09:58:41.887,,-18,-23,1061
09:58:41.925,,-18,-23,1062
09:58:41.963,,-18,-23,1061
09:58:42.001,,-18,-23,1062
09:58:42.039,,-18,-24,1062
09:58:42.077,,-18,-23,1062
09:58:42.115,,-18,-23,1061
09:58:42.153,,-18,-24,1062
09:58:42.191,,-18,-24,1062
09:58:42.229,,-18,-23,1062
09:58:42.267,,-18,-23,1062
09:58:42.305,,-17,-23,1062
09:58:42.343,,-18,-23,1061
09:58:42.381,,-18,-23,1062
09:58:42.419,,-18,-23,1062
09:58:42.457,,-18,-24,1062
09:58:42.495,,-18,-23,1062
09:58:42.533,,-18,-23,1061
09:58:42.571,,-18,-23,1062
09:58:42.609,,-18,-23,1062
09:58:42.647,,-18,-23,1061
09:58:42.685,,-18,-23,1062
09:58:42.723,,-17,-24,1061
09:58:42.761,,-18,-23,1062
09:58:42.799,,-18,-23,1061
09:58:42.837,,-18,-23,1061
09:58:42.875,,-17,-24,1061
09:58:42.913,,-18,-23,1061
09:58:42.951,,-18,-23,1061
09:58:42.989,,-18,-24,1061
09:58:43.027,,-18,-23,1061
09:58:43.065,,-18,-23,1061
09:58:43.103,,-17,-24,1060
09:58:43.141,,-17,-23,1061
09:58:43.179,,-18,-23,1061
09:58:43.217,,-18,-23,1060
09:58:43.255,,-18,-23,1061
09:58:43.293,,-18,-23,1061
09:58:43.331,,-18,-23,1061
09:58:43.369,,-18,-23,1061
09:58:43.407,,-18,-23,1061
09:58:43.445,,-17,-23,1061
09:58:43.483,,-18,-23,1062
09:58:43.521,,-18,-23,1061
09:58:43.559,,-18,-23,1062
09:58:43.597,,-18,-23,1062
09:58:43.635,,-18,-23,1061
09:58:43.673,,-17,-23,1061
09:58:43.711,,-17,-23,1062
09:58:43.749,,-18,-23,1062
09:58:43.787,,-17,-23,1061
09:58:43.825,,-17,-24,1061
09:58:43.863,,-18,-23,1062
09:58:43.901,,-18,-23,1061
09:58:43.939,,-17,-24,1062
09:58:43.977,,-18,-23,1062
09:58:44.015,,-18,-23,1062
09:58:44.053,,-17,-23,1062
09:58:44.091,,-17,-23,1062
09:58:44.129,,-17,-23,1062
09:58:44.167,,-18,-23,1062
09:58:44.205,,-18,-23,1062
09:58:44.243,,-18,-23,1062
09:58:44.281,,-18,-23,1061
09:58:44.319,,-18,-23,1062
09:58:44.357,,-18,-23,1062
09:58:44.395,,-18,-23,1061
09:58:44.433,,-18,-23,1062
09:58:44.471,,-18,-23,1062
09:58:44.509,,-18,-24,1062
09:58:44.547,,-18,-23,1061
09:58:44.585,,-18,-23,1062
09:58:44.623,,-18,-23,1062
09:58:44.661,,-18,-23,1062
09:58:44.699,,-18,-23,1062
09:58:44.737,,-18,-23,1062
09:58:44.865,,-17,-23,1061
09:58:44.866,,-17,-23,1061
09:58:44.867,,-17,-23,1061
09:58:44.889,,-18,-24,1062
09:58:44.927,,-18,-23,1062
09:58:44.965,,-18,-23,1063
09:58:45.003,,-18,-23,1062
09:58:45.041,,-18,-23,1063
09:58:45.079,,-18,-24,1062
09:58:45.117,,-17,-23,1062
09:58:45.155,,-18,-23,1063
09:58:45.193,,-17,-23,1063
09:58:45.231,,-18,-23,1062
09:58:45.269,,-18,-23,1063
09:58:45.307,,-18,-23,1063
09:58:45.345,,-17,-23,1062
09:58:45.383,,-18,-23,1062
09:58:45.421,,-18,-23,1062
09:58:45.459,,-18,-23,1063
09:58:45.497,,-17,-23,1063
09:58:45.535,,-17,-23,1062
09:58:45.573,,-18,-23,1063
09:58:45.611,,-18,-23,1062
09:58:45.649,,-18,-23,1063
09:58:45.687,,-17,-23,1062
09:58:45.725,,-18,-23,1063
09:58:45.763,,-17,-23,1062
09:58:45.801,,-18,-23,1062
09:58:45.839,,-17,-23,1063
09:58:45.877,,-18,-23,1063
09:58:45.915,,-18,-23,1063
09:58:45.953,,-18,-23,1062
09:58:45.991,,-18,-23,1063
09:58:46.029,,-17,-24,1062
09:58:46.067,,-17,-23,1062
09:58:46.105,,-17,-23,1063
09:58:46.143,,-18,-23,1063
09:58:46.181,,-17,-23,1062
09:58:46.219,,-18,-23,1062
09:58:46.257,,-18,-23,1062
09:58:46.295,,-17,-23,1062
09:58:46.333,,-18,-23,1062
09:58:46.371,,-18,-24,1062
09:58:46.409,,-18,-23,1062
09:58:46.447,,-18,-23,1063
09:58:46.485,,-17,-23,1063
09:58:46.523,,-18,-23,1062
09:58:46.561,,-17,-23,1062
09:58:46.599,,-18,-23,1063
09:58:46.637,,-18,-23,1063
09:58:46.675,,-17,-23,1062
09:58:46.713,,-17,-23,1062
09:58:46.751,,-18,-23,1063
09:58:46.789,,-18,-23,1062
09:58:46.827,,-18,-23,1062
09:58:46.865,,-17,-23,1063
09:58:46.903,,-18,-24,1062
09:58:46.941,,-17,-22,1062
09:58:46.979,,-18,-23,1063
09:58:47.017,,-18,-23,1063
09:58:47.055,,-19,-22,1063
09:58:47.093,,-16,-24,1061
09:58:47.131,,-18,-24,1063
09:58:47.169,,-17,-22,1062
09:58:47.207,,-17,-24,1062
09:58:47.245,,-17,-23,1063
09:58:47.283,,-17,-23,1062
09:58:47.321,,-17,-23,1062
09:58:47.359,,-18,-24,1062
09:58:47.397,,-17,-23,1062
09:58:47.435,,-17,-23,1062
09:58:47.473,,-17,-24,1062
09:58:47.511,,-9,-24,1058
09:58:47.549,,-26,-22,1064
09:58:47.587,,-19,-24,1065
09:58:47.625,,-15,-23,1062
09:58:47.663,,-18,-23,1064
09:58:47.701,,-17,-23,1063
09:58:47.739,,-18,-24,1062
09:58:47.777,,-19,-23,1063
09:58:47.815,,-17,-23,1062
09:58:47.853,,-18,-23,1062
09:58:47.891,,-19,-23,1063
09:58:47.929,,-18,-23,1062
09:58:47.967,,-17,-23,1062
09:58:48.005,,-18,-23,1063
09:58:48.043,,-18,-24,1062
09:58:48.081,,-17,-23,1062
09:58:48.119,,-18,-23,1064
09:58:48.157,,-17,-23,1062
09:58:48.195,,-18,-23,1063
09:58:48.233,,-18,-23,1064
09:58:48.271,,-17,-23,1061
09:58:48.309,,-18,-23,1062
09:58:48.347,,-19,-23,1063
09:58:48.385,,-16,-23,1062
09:58:48.423,,-19,-23,1064
09:58:48.461,,-17,-23,1061
09:58:48.499,,-19,-24,1063
09:58:48.537,,-17,-23,1063
09:58:48.575,,-18,-23,1062
09:58:48.613,,-18,-23,1063
09:58:48.651,,-17,-23,1062
09:58:48.689,,-18,-24,1062
09:58:48.727,,-18,-24,1063
09:58:48.765,,-17,-24,1062
09:58:48.803,,-18,-23,1062
09:58:48.841,,-17,-23,1062
09:58:48.879,,-17,-23,1062
09:58:48.917,,-17,-23,1062
09:58:48.955,,-19,-23,1064
09:58:48.993,,-17,-23,1061
09:58:49.031,,-18,-24,1062
09:58:49.069,,-17,-23,1063
09:58:49.107,,-18,-23,1062
09:58:49.145,,-18,-23,1062
09:58:49.183,,-16,-23,1060
09:58:49.221,,-19,-23,1065
09:58:49.259,,-18,-23,1061
09:58:49.297,,-17,-23,1061
09:58:49.335,,-18,-24,1063
09:58:49.373,,-18,-24,1063
09:58:49.411,,-17,-23,1062
09:58:49.449,,-18,-23,1062
09:58:49.487,,-18,-23,1063
09:58:49.525,,-17,-23,1062
09:58:49.563,,-18,-23,1062
09:58:49.601,,-18,-23,1063
09:58:49.639,,-18,-24,1062
09:58:49.677,,-18,-23,1062
09:58:49.715,,-17,-23,1062
09:58:49.753,,-18,-23,1063
09:58:49.791,,-17,-23,1062
09:58:49.829,,-18,-23,1062
09:58:49.867,,-18,-23,1063
09:58:49.905,,-18,-23,1062
09:58:49.943,,-18,-23,1062
09:58:49.981,,-18,-23,1062
09:58:50.019,,-18,-23,1062
09:58:50.057,,-18,-23,1062
09:58:50.095,,-18,-23,1061
09:58:50.133,,-18,-23,1063
09:58:50.171,,-17,-23,1062
09:58:50.209,,-18,-24,1063
09:58:50.247,,-18,-23,1062
09:58:50.285,,-18,-23,1062
09:58:50.323,,-18,-23,1062
09:58:50.361,,-18,-23,1062
09:58:50.399,,-17,-23,1062
09:58:50.437,,-18,-23,1062
09:58:50.475,,-17,-23,1062
09:58:50.513,,-18,-23,1062
09:58:50.633,,-18,-23,1062
09:58:50.634,,-18,-23,1062
09:58:50.635,,-18,-23,1063
09:58:50.665,,-18,-23,1063
09:58:50.703,,-17,-23,1062
09:58:50.741,,-18,-23,1062
09:58:50.779,,-17,-23,1063
09:58:50.817,,-18,-23,1062
09:58:50.855,,-18,-23,1062
09:58:50.893,,-18,-23,1062
09:58:50.931,,-18,-23,1062
09:58:50.969,,-18,-23,1062
09:58:51.006,,-18,-23,1062
09:58:51.044,,-18,-23,1063
09:58:51.082,,-18,-23,1062
09:58:51.120,,-17,-24,1062
09:58:51.158,,-18,-23,1062
09:58:51.196,,-17,-23,1062
09:58:51.234,,-18,-23,1062
09:58:51.272,,-18,-23,1062
09:58:51.310,,-18,-24,1062
09:58:51.348,,-18,-23,1062
09:58:51.386,,-18,-23,1062
09:58:51.424,,-18,-23,1062
09:58:51.462,,-17,-23,1063
09:58:51.500,,-18,-23,1062
09:58:51.538,,-18,-23,1062
09:58:51.576,,-18,-23,1062
09:58:51.614,,-17,-23,1062
09:58:51.652,,-18,-23,1062
09:58:51.690,,-17,-23,1062
09:58:51.728,,-18,-23,1062
09:58:51.766,,-18,-24,1062
09:58:51.804,,-18,-23,1063
09:58:51.842,,-17,-23,1061
09:58:51.880,,-18,-23,1063
09:58:51.918,,-18,-23,1062
09:58:51.956,,-18,-23,1062
09:58:51.994,,-18,-23,1062
09:58:52.032,,-17,-23,1062
09:58:52.070,,-17,-23,1062
09:58:52.108,,-18,-23,1062
09:58:52.146,,-18,-23,1063
09:58:52.184,,-18,-23,1062
09:58:52.222,,-17,-24,1062
09:58:52.260,,-18,-23,1062
09:58:52.298,,-17,-23,1063
09:58:52.336,,-18,-23,1062
09:58:52.374,,-18,-23,1061
09:58:52.412,,-18,-23,1063
09:58:52.450,,-18,-23,1062
09:58:52.488,,-18,-23,1062
09:58:52.526,,-18,-23,1062
09:58:52.564,,-17,-24,1062
09:58:52.602,,-18,-23,1062
09:58:52.640,,-18,-23,1062
09:58:52.678,,-18,-23,1063
09:58:52.716,,-18,-23,1062
09:58:52.754,,-17,-23,1063
09:58:52.792,,-18,-23,1062
09:58:52.830,,-18,-24,1062
09:58:52.868,,-17,-23,1062
09:58:52.906,,-18,-23,1062
09:58:52.944,,-17,-23,1062
09:58:52.982,,-18,-23,1063
09:58:53.020,,-18,-23,1063
09:58:53.058,,-17,-23,1062
09:58:53.096,,-18,-23,1062
09:58:53.134,,-18,-23,1062
09:58:53.172,,-18,-23,1062
09:58:53.210,,-18,-23,1062
09:58:53.248,,-18,-23,1062
09:58:53.286,,-17,-23,1063
09:58:53.324,,-18,-23,1062
09:58:53.362,,-18,-23,1063
09:58:53.400,,-17,-23,1063
09:58:53.438,,-18,-23,1062
09:58:53.476,,-17,-23,1062
09:58:53.514,,-17,-23,1063
09:58:53.552,,-17,-23,1063
09:58:53.590,,-18,-23,1062
09:58:53.628,,-18,-23,1063
09:58:53.666,,-18,-23,1063
09:58:53.704,,-17,-23,1062
09:58:53.742,,-18,-23,1063
09:58:53.780,,-17,-23,1062
09:58:53.818,,-18,-24,1062
09:58:53.856,,-18,-23,1062
09:58:53.894,,-18,-23,1062
09:58:53.932,,-17,-23,1062
09:58:53.970,,-17,-23,1062
09:58:54.008,,-18,-23,1063
09:58:54.046,,-18,-23,1062
09:58:54.084,,-19,-23,1063
09:58:54.122,,-18,-23,1062
09:58:54.160,,-18,-23,1062
09:58:54.198,,-18,-23,1062
09:58:54.236,,-18,-23,1062
09:58:54.274,,-18,-24,1062
09:58:54.312,,-18,-23,1062
09:58:54.350,,-18,-23,1062
09:58:54.388,,-18,-23,1063
09:58:54.426,,-18,-23,1063
09:58:54.464,,-17,-23,1062
09:58:54.502,,-18,-24,1062
09:58:54.540,,-18,-23,1062
09:58:54.578,,-18,-23,1061
09:58:54.616,,-18,-23,1062
09:58:54.654,,-17,-23,1062
09:58:54.692,,-18,-23,1062
09:58:54.730,,-18,-23,1062
09:58:54.768,,-18,-23,1062
09:58:54.806,,-17,-23,1062
09:58:54.844,,-17,-23,1062
09:58:54.882,,-18,-23,1062
09:58:54.920,,-18,-23,1062
09:58:54.958,,-18,-23,1063
09:58:54.996,,-18,-23,1062
09:58:55.034,,-18,-23,1062
09:58:55.072,,-17,-24,1062
09:58:55.110,,-18,-23,1062
09:58:55.148,,-18,-23,1062
09:58:55.186,,-18,-23,1062
09:58:55.224,,-18,-23,1062
09:58:55.262,,-18,-23,1062
09:58:55.300,,-18,-23,1062
09:58:55.338,,-18,-23,1062
09:58:55.376,,-17,-23,1062
09:58:55.414,,-18,-23,1062
09:58:55.452,,-18,-23,1062
09:58:55.490,,-18,-23,1062
09:58:55.528,,-18,-23,1061
09:58:55.566,,-18,-23,1062
09:58:55.604,,-17,-23,1061
09:58:55.642,,-18,-23,1062
09:58:55.680,,-18,-23,1063
09:58:55.718,,-18,-23,1061
09:58:55.756,,-18,-23,1062
09:58:55.794,,-18,-24,1062
09:58:55.832,,-18,-23,1062
09:58:55.870,,-19,-23,1062
09:58:55.908,,-18,-23,1062
09:58:55.946,,-18,-23,1062
09:58:55.984,,-18,-23,1062
09:58:56.022,,-18,-23,1062
09:58:56.060,,-17,-23,1062
09:58:56.098,,-18,-23,1062
09:58:56.136,,-18,-23,1063
09:58:56.174,,-18,-23,1062
09:58:56.212,,-17,-24,1062
09:58:56.250,,-17,-23,1062
09:58:56.377,,-18,-23,1062
09:58:56.378,,-18,-23,1062
09:58:56.380,,-18,-23,1062
09:58:56.402,,-18,-23,1062
09:58:56.440,,-17,-23,1062
09:58:56.478,,-17,-24,1062
09:58:56.516,,-18,-23,1062
09:58:56.554,,-18,-23,1062
09:58:56.592,,-18,-23,1063
09:58:56.630,,-17,-23,1062
09:58:56.668,,-18,-23,1062
09:58:56.706,,-18,-23,1063
09:58:56.744,,-18,-23,1063
09:58:56.782,,-17,-23,1062
09:58:56.820,,-18,-23,1063
09:58:56.858,,-18,-23,1063
09:58:56.896,,-18,-24,1062
09:58:56.934,,-17,-23,1062
09:58:56.972,,-18,-23,1062
09:58:57.010,,-18,-23,1063
09:58:57.048,,-17,-23,1063
09:58:57.086,,-18,-23,1062
09:58:57.124,,-17,-23,1062
09:58:57.162,,-18,-23,1062
09:58:57.200,,-18,-23,1063
09:58:57.238,,-18,-23,1063
09:58:57.276,,-18,-23,1062
09:58:57.314,,-18,-23,1062
09:58:57.352,,-18,-23,1063
09:58:57.390,,-17,-23,1063
09:58:57.428,,-18,-23,1062
09:58:57.466,,-17,-23,1062
09:58:57.504,,-18,-23,1063
09:58:57.542,,-18,-24,1062
09:58:57.580,,-18,-23,1062
09:58:57.618,,-17,-23,1062
09:58:57.656,,-18,-23,1063
09:58:57.694,,-18,-23,1062
09:58:57.732,,-18,-23,1063
09:58:57.770,,-18,-23,1063
09:58:57.808,,-18,-23,1062
09:58:57.846,,-18,-24,1062
09:58:57.884,,-18,-23,1062
09:58:57.922,,-18,-23,1063
09:58:57.960,,-18,-23,1062
09:58:57.998,,-18,-23,1063
09:58:58.036,,-18,-23,1062
09:58:58.074,,-18,-23,1062
09:58:58.112,,-18,-23,1062
09:58:58.150,,-18,-23,1062
09:58:58.188,,-18,-23,1062
09:58:58.226,,-17,-23,1062
09:58:58.264,,-18,-23,1062
09:58:58.302,,-18,-23,1062
09:58:58.340,,-18,-23,1062
09:58:58.378,,-18,-23,1062
09:58:58.416,,-17,-23,1062
09:58:58.454,,-18,-24,1062
09:58:58.492,,-18,-24,1062
09:58:58.530,,-17,-23,1061
09:58:58.568,,-18,-23,1062
09:58:58.606,,-18,-23,1062
09:58:58.644,,-18,-23,1062
09:58:58.682,,-18,-23,1062
09:58:58.720,,-18,-23,1062
09:58:58.758,,-18,-23,1062
09:58:58.796,,-18,-23,1062
09:58:58.834,,-18,-24,1062
09:58:58.872,,-18,-23,1062
09:58:58.910,,-18,-23,1062
09:58:58.948,,-18,-23,1062
09:58:58.986,,-18,-23,1062
09:58:59.024,,-18,-23,1062
09:58:59.062,,-18,-23,1062
09:58:59.100,,-17,-23,1061
09:58:59.138,,-18,-23,1062
09:58:59.176,,-18,-23,1061
09:58:59.214,,-18,-23,1062
09:58:59.252,,-18,-24,1062
09:58:59.290,,-17,-23,1062
09:58:59.328,,-17,-24,1061
09:58:59.366,,-18,-23,1061
09:58:59.404,,-18,-24,1062
09:58:59.442,,-17,-23,1062
09:58:59.480,,-18,-23,1062
09:58:59.518,,-18,-23,1062
09:58:59.556,,-18,-23,1062
09:58:59.594,,-18,-23,1062
09:58:59.632,,-18,-23,1062
09:58:59.670,,-18,-24,1062
09:58:59.708,,-17,-23,1061
09:58:59.746,,-18,-23,1062
09:58:59.784,,-18,-23,1062
09:58:59.822,,-17,-23,1062
09:58:59.860,,-17,-23,1062
09:58:59.898,,-18,-23,1062
09:58:59.936,,-17,-23,1061
09:58:59.974,,-18,-23,1062
09:59:00.012,,-18,-23,1061
09:59:00.050,,-18,-23,1062
09:59:00.088,,-17,-23,1060
09:59:00.126,,-19,-23,1064
09:59:00.164,,-18,-23,1062
09:59:00.202,,-17,-23,1062
09:59:00.239,,-18,-23,1060
09:59:00.277,,-17,-24,1062
09:59:00.315,,-18,-23,1062
09:59:00.353,,-17,-23,1062
09:59:00.391,,-18,-23,1062
09:59:00.429,,-18,-24,1062
09:59:00.467,,-18,-24,1062
09:59:00.505,,-18,-23,1062
09:59:00.543,,-18,-23,1062
09:59:00.581,,-17,-23,1062
09:59:00.619,,-18,-23,1062
09:59:00.657,,-18,-23,1062
09:59:00.695,,-18,-23,1062
09:59:00.733,,-18,-23,1062
09:59:00.771,,-18,-23,1062
09:59:00.809,,-18,-24,1063
09:59:00.847,,-17,-24,1062
09:59:00.885,,-18,-24,1062
09:59:00.923,,-18,-23,1062
09:59:00.961,,-18,-23,1062
09:59:00.999,,-18,-23,1062
09:59:01.037,,-18,-24,1062
09:59:01.075,,-18,-23,1062
09:59:01.113,,-18,-22,1063
09:59:01.151,,-18,-24,1062
09:59:01.189,,-18,-23,1062
09:59:01.227,,-18,-23,1062
09:59:01.265,,-18,-24,1062
09:59:01.303,,-18,-23,1062
09:59:01.341,,-17,-23,1061
09:59:01.379,,-18,-24,1062
09:59:01.417,,-18,-23,1062
09:59:01.455,,-19,-23,1062
09:59:01.493,,-18,-23,1062
09:59:01.531,,-19,-23,1062
09:59:01.569,,-18,-23,1063
09:59:01.607,,-19,-26,1057
09:59:01.645,,-18,-20,1068
09:59:01.683,,-16,-24,1061
09:59:01.721,,-19,-23,1062
09:59:01.759,,-19,-23,1063
09:59:01.797,,-18,-24,1062
09:59:01.835,,-18,-23,1063
09:59:01.873,,-17,-23,1061
09:59:01.911,,-19,-24,1063
09:59:01.949,,-19,-23,1063
09:59:01.987,,-17,-23,1062
09:59:02.025,,-18,-23,1063
09:59:02.146,,-17,-23,1062
09:59:02.147,,-17,-23,1062
09:59:02.149,,-17,-23,1062
09:59:02.177,,-18,-23,1062
09:59:02.215,,-18,-23,1062
09:59:02.253,,-18,-23,1062
09:59:02.291,,-19,-23,1063
09:59:02.329,,-18,-23,1062
09:59:02.367,,-18,-24,1063
09:59:02.405,,-18,-23,1062
09:59:02.443,,-18,-23,1062
09:59:02.481,,-18,-23,1063
09:59:02.519,,-18,-23,1062
09:59:02.557,,-18,-23,1063
09:59:02.595,,-18,-23,1062
09:59:02.633,,-18,-23,1062
09:59:02.671,,-18,-23,1063
09:59:02.709,,-18,-23,1062
09:59:02.747,,-18,-23,1063
09:59:02.785,,-18,-23,1062
09:59:02.823,,-18,-23,1063
09:59:02.861,,-18,-23,1062
09:59:02.899,,-18,-24,1064
09:59:02.937,,-18,-23,1062
09:59:02.975,,-18,-23,1063
09:59:03.013,,-18,-23,1063
09:59:03.051,,-17,-23,1061
09:59:03.089,,-18,-23,1063
09:59:03.127,,-18,-23,1063
09:59:03.165,,-18,-23,1063
09:59:03.203,,-18,-23,1063
09:59:03.241,,-18,-23,1062
09:59:03.279,,-18,-23,1063
09:59:03.317,,-18,-23,1062
09:59:03.355,,-18,-24,1063
09:59:03.393,,-18,-23,1063
09:59:03.431,,-18,-23,1063
09:59:03.469,,-19,-23,1063
09:59:03.507,,-18,-23,1063
09:59:03.545,,-18,-23,1063
09:59:03.583,,-18,-23,1063
09:59:03.621,,-18,-23,1063
09:59:03.659,,-18,-23,1062
09:59:03.697,,-18,-23,1063
09:59:03.735,,-18,-23,1063
09:59:03.773,,-17,-23,1063
09:59:03.811,,-18,-24,1063
09:59:03.849,,-18,-23,1063
09:59:03.887,,-18,-23,1062
09:59:03.925,,-18,-23,1062
09:59:03.963,,-19,-23,1063
09:59:04.001,,-17,-23,1061
09:59:04.039,,-19,-23,1063
09:59:04.077,,-18,-23,1062
09:59:04.115,,-18,-22,1063
09:59:04.153,,-18,-23,1062
09:59:04.191,,-18,-23,1061
09:59:04.229,,-18,-23,1062
09:59:04.267,,-19,-23,1063
09:59:04.305,,-18,-23,1062
09:59:04.343,,-18,-23,1062
09:59:04.381,,-17,-23,1062
09:59:04.419,,-18,-23,1063
09:59:04.457,,-19,-23,1062
09:59:04.495,,-18,-24,1062
09:59:04.533,,-18,-23,1062
09:59:04.571,,-18,-23,1063
09:59:04.609,,-18,-23,1063
09:59:04.647,,-18,-23,1062
09:59:04.685,,-18,-23,1062
09:59:04.723,,-18,-23,1062
09:59:04.761,,-18,-23,1062
09:59:04.799,,-19,-23,1063
09:59:04.837,,-18,-23,1062
09:59:04.875,,-18,-23,1062
09:59:04.913,,-18,-23,1062
09:59:04.951,,-18,-23,1062
09:59:04.989,,-18,-23,1062
09:59:05.027,,-18,-23,1062
09:59:05.065,,-18,-23,1062
09:59:05.103,,-18,-23,1062
09:59:05.141,,-18,-23,1062
09:59:05.179,,-18,-23,1062
09:59:05.217,,-18,-23,1063
09:59:05.255,,-18,-23,1063
09:59:05.293,,-18,-24,1062
09:59:05.331,,-18,-24,1062
09:59:05.369,,-18,-24,1062
09:59:05.407,,-19,-23,1063
09:59:05.445,,-18,-23,1062
09:59:05.483,,-18,-23,1062
09:59:05.521,,-18,-23,1062
09:59:05.559,,-18,-23,1062
09:59:05.597,,-18,-23,1063
09:59:05.635,,-18,-23,1062
09:59:05.673,,-18,-23,1062
09:59:05.711,,-19,-23,1062
09:59:05.749,,-18,-23,1062
09:59:05.787,,-18,-23,1062
09:59:05.825,,-18,-23,1062
09:59:05.863,,-19,-23,1064
09:59:05.901,,-18,-23,1062
09:59:05.939,,-18,-23,1062
09:59:05.977,,-18,-23,1063
09:59:06.015,,-18,-23,1063
09:59:06.053,,-18,-23,1062
09:59:06.091,,-18,-23,1062
09:59:06.129,,-18,-23,1063
09:59:06.167,,-19,-23,1062
09:59:06.205,,-18,-23,1062
09:59:06.243,,-19,-23,1062
09:59:06.281,,-18,-23,1063
09:59:06.319,,-19,-23,1063
09:59:06.357,,-18,-23,1062
09:59:06.395,,-18,-23,1063
09:59:06.433,,-18,-23,1062
09:59:06.471,,-18,-23,1063
09:59:06.509,,-17,-23,1063
09:59:06.547,,-18,-23,1062
09:59:06.585,,-18,-23,1063
09:59:06.623,,-18,-23,1062
09:59:06.661,,-18,-23,1062
09:59:06.699,,-18,-23,1062
09:59:06.737,,-18,-23,1063
09:59:06.775,,-18,-23,1062
09:59:06.813,,-18,-23,1063
09:59:06.851,,-18,-23,1063
09:59:06.889,,-18,-23,1063
09:59:06.927,,-18,-23,1063
09:59:06.965,,-18,-23,1063
09:59:07.003,,-18,-23,1063
09:59:07.041,,-18,-23,1062
09:59:07.079,,-18,-23,1063
09:59:07.117,,-18,-23,1063
09:59:07.155,,-18,-23,1063
09:59:07.193,,-18,-23,1063
09:59:07.231,,-19,-23,1063
09:59:07.269,,-18,-23,1063
09:59:07.307,,-18,-23,1062
09:59:07.345,,-18,-23,1062
09:59:07.383,,-18,-23,1063
09:59:07.421,,-18,-23,1063
09:59:07.459,,-18,-23,1063
09:59:07.497,,-18,-23,1062
09:59:07.535,,-18,-23,1062
09:59:07.573,,-18,-23,1063
09:59:07.611,,-18,-23,1063
09:59:07.649,,-18,-23,1062
09:59:07.687,,-19,-24,1063
09:59:07.725,,-18,-23,1063
09:59:07.763,,-18,-23,1063
09:59:07.801,,-18,-23,1063
09:59:07.927,,-18,-23,1062
09:59:07.929,,-18,-23,1062
09:59:07.930,,-18,-23,1062
09:59:07.953,,-18,-23,1063
09:59:07.991,,-18,-23,1063
09:59:08.029,,-18,-23,1063
09:59:08.067,,-18,-23,1062
09:59:08.105,,-18,-23,1062
09:59:08.143,,-19,-24,1063
09:59:08.181,,-18,-23,1063
09:59:08.219,,-18,-23,1062
09:59:08.257,,-18,-23,1063
09:59:08.295,,-18,-23,1063
09:59:08.333,,-18,-23,1063
09:59:08.371,,-18,-23,1063
09:59:08.409,,-18,-24,1063
09:59:08.447,,-18,-23,1063
09:59:08.485,,-18,-23,1062
09:59:08.523,,-18,-24,1063
09:59:08.561,,-18,-23,1063
09:59:08.599,,-18,-23,1063
09:59:08.637,,-17,-23,1062
09:59:08.675,,-18,-23,1063
09:59:08.713,,-18,-24,1063
09:59:08.751,,-18,-23,1063
09:59:08.789,,-18,-23,1063
09:59:08.827,,-18,-23,1062
09:59:08.865,,-18,-23,1063
09:59:08.903,,-17,-23,1062
09:59:08.941,,-18,-23,1064
09:59:08.979,,-18,-23,1062
09:59:09.017,,-18,-23,1063
09:59:09.055,,-18,-23,1063
09:59:09.093,,-18,-23,1063
09:59:09.131,,-20,-21,1064
09:59:09.169,,-17,-23,1063
09:59:09.207,,-17,-24,1061
09:59:09.245,,-15,-25,1061
09:59:09.283,,-18,-23,1063
09:59:09.321,,-17,-23,1062
09:59:09.359,,-18,-23,1063
09:59:09.397,,-17,-23,1063
09:59:09.435,,-17,-23,1063
09:59:09.473,,-17,-23,1063
09:59:09.511,,-17,-23,1062
09:59:09.549,,-17,-23,1063
09:59:09.587,,-17,-23,1063
09:59:09.625,,-17,-23,1063
09:59:09.663,,-17,-23,1062
09:59:09.701,,-17,-23,1061
09:59:09.739,,-19,-23,1064
09:59:09.777,,-17,-23,1063
09:59:09.814,,-17,-23,1063
09:59:09.852,,-18,-23,1063
09:59:09.890,,-17,-23,1062
09:59:09.928,,-18,-23,1063
09:59:09.966,,-17,-23,1062
09:59:10.004,,-18,-23,1063
09:59:10.042,,-17,-23,1063
09:59:10.080,,-17,-23,1063
09:59:10.118,,-18,-23,1062
09:59:10.156,,-18,-23,1063
09:59:10.194,,-17,-23,1063
09:59:10.232,,-17,-23,1063
09:59:10.270,,-17,-23,1063
09:59:10.308,,-18,-23,1062
09:59:10.346,,-17,-23,1063
09:59:10.384,,-18,-23,1062
09:59:10.422,,-18,-23,1062
09:59:10.460,,-18,-23,1063
09:59:10.498,,-18,-23,1063
09:59:10.536,,-17,-23,1062
09:59:10.574,,-18,-23,1063
09:59:10.612,,-18,-23,1062
09:59:10.650,,-18,-23,1063
09:59:10.688,,-17,-23,1063
09:59:10.726,,-18,-23,1063
09:59:10.764,,-17,-23,1063
09:59:10.802,,-18,-23,1062
09:59:10.840,,-18,-23,1063
09:59:10.878,,-18,-23,1063
09:59:10.916,,-18,-23,1062
09:59:10.954,,-17,-23,1063
09:59:10.992,,-18,-23,1062
09:59:11.030,,-17,-23,1063
09:59:11.068,,-18,-23,1062
09:59:11.106,,-17,-23,1062
09:59:11.144,,-18,-23,1062
09:59:11.182,,-17,-23,1063
09:59:11.220,,-18,-23,1062
09:59:11.258,,-18,-24,1062
09:59:11.296,,-18,-23,1063
09:59:11.334,,-17,-23,1062
09:59:11.372,,-17,-23,1062
09:59:11.410,,-17,-24,1062
09:59:11.448,,-18,-23,1062
09:59:11.486,,-17,-23,1062
09:59:11.524,,-18,-23,1062
09:59:11.562,,-18,-23,1062
09:59:11.600,,-18,-23,1062
09:59:11.638,,-17,-23,1062
09:59:11.676,,-18,-23,1061
09:59:11.714,,-18,-23,1062
09:59:11.752,,-18,-23,1062
09:59:11.790,,-18,-23,1062
09:59:11.828,,-17,-23,1062
09:59:11.866,,-17,-23,1061
09:59:11.904,,-18,-23,1061
09:59:11.942,,-17,-23,1062
09:59:11.980,,-18,-23,1062
09:59:12.018,,-17,-23,1062
09:59:12.056,,-18,-23,1062
09:59:12.094,,-18,-23,1062
09:59:12.132,,-18,-23,1060
09:59:12.170,,-17,-24,1061
09:59:12.208,,-18,-23,1061
09:59:12.246,,-18,-24,1062
09:59:12.284,,-17,-23,1062
09:59:12.322,,-18,-23,1062
09:59:12.360,,-18,-23,1061
09:59:12.398,,-18,-23,1061
09:59:12.436,,-17,-23,1061
09:59:12.474,,-18,-24,1061
09:59:12.512,,-18,-24,1062
09:59:12.550,,-18,-23,1062
09:59:12.588,,-18,-23,1061
09:59:12.626,,-18,-23,1062
09:59:12.664,,-18,-23,1061
09:59:12.702,,-18,-23,1062
09:59:12.740,,-17,-23,1061
09:59:12.778,,-17,-23,1061
09:59:12.816,,-17,-23,1062
09:59:12.854,,-18,-23,1062
09:59:12.892,,-17,-23,1062
09:59:12.930,,-18,-23,1061
09:59:12.968,,-18,-23,1062
09:59:13.006,,-18,-23,1062
09:59:13.044,,-18,-23,1062
09:59:13.082,,-18,-24,1061
09:59:13.120,,-18,-23,1062
09:59:13.158,,-18,-22,1061
09:59:13.196,,-17,-23,1061
09:59:13.234,,-17,-23,1062
09:59:13.272,,-18,-23,1062
09:59:13.310,,-18,-23,1062
09:59:13.348,,-17,-23,1062
09:59:13.386,,-18,-23,1062
09:59:13.424,,-17,-23,1062
09:59:13.462,,-17,-23,1062
09:59:13.500,,-18,-23,1062
09:59:13.538,,-17,-23,1063
09:59:13.659,,-17,-23,1063
09:59:13.661,,-17,-23,1063
09:59:13.662,,-17,-23,1063
09:59:13.690,,-17,-23,1062
09:59:13.728,,-18,-23,1062
09:59:13.766,,-18,-23,1062
09:59:13.804,,-18,-23,1062
09:59:13.842,,-18,-23,1063
09:59:13.880,,-17,-23,1062
09:59:13.918,,-18,-23,1062
09:59:13.956,,-17,-23,1062
09:59:13.994,,-17,-23,1062
09:59:14.032,,-18,-23,1062
09:59:14.070,,-17,-23,1062
09:59:14.108,,-18,-23,1063
09:59:14.146,,-17,-23,1062
09:59:14.184,,-17,-23,1063
09:59:14.222,,-18,-23,1062
09:59:14.260,,-17,-24,1062
09:59:14.298,,-18,-23,1062
09:59:14.336,,-17,-23,1062
09:59:14.374,,-18,-24,1062
09:59:14.412,,-18,-23,1062
09:59:14.450,,-18,-23,1063
09:59:14.488,,-18,-23,1062
09:59:14.526,,-18,-23,1062
09:59:14.564,,-17,-23,1062
09:59:14.602,,-18,-23,1063
09:59:14.640,,-18,-24,1062
09:59:14.678,,-17,-24,1062
09:59:14.716,,-18,-24,1062
09:59:14.754,,-18,-23,1063
09:59:14.792,,-17,-23,1063
09:59:14.830,,-17,-23,1063
09:59:14.868,,-17,-23,1063
09:59:14.906,,-17,-23,1062
09:59:14.944,,-18,-23,1063
09:59:14.982,,-18,-23,1063
09:59:15.020,,-17,-23,1062
09:59:15.058,,-17,-23,1063
09:59:15.096,,-18,-23,1062
09:59:15.134,,-17,-23,1063
09:59:15.172,,-18,-23,1062
09:59:15.210,,-18,-23,1062
09:59:15.248,,-18,-23,1063
09:59:15.286,,-18,-24,1063
09:59:15.324,,-18,-23,1062
09:59:15.362,,-17,-23,1062
09:59:15.400,,-18,-23,1063
09:59:15.438,,-17,-23,1063
09:59:15.476,,-18,-23,1063
09:59:15.514,,-17,-23,1063
09:59:15.552,,-18,-24,1062
09:59:15.590,,-17,-23,1063
09:59:15.628,,-18,-23,1061
09:59:15.666,,-19,-23,1065
09:59:15.704,,-18,-24,1062
09:59:15.742,,-17,-23,1062
09:59:15.780,,-18,-24,1062
09:59:15.818,,-17,-23,1062
09:59:15.856,,-18,-23,1063
09:59:15.894,,-18,-23,1063
09:59:15.932,,-18,-23,1063
09:59:15.970,,-18,-24,1062
09:59:16.008,,-18,-23,1063
09:59:16.046,,-17,-23,1063
09:59:16.084,,-17,-23,1063
09:59:16.122,,-18,-24,1063
09:59:16.160,,-17,-23,1064
09:59:16.198,,-17,-23,1062
09:59:16.236,,-18,-23,1063
09:59:16.274,,-17,-23,1062
09:59:16.312,,-17,-23,1063
09:59:16.350,,-18,-23,1063
09:59:16.388,,-18,-23,1062
09:59:16.426,,-16,-23,1062
09:59:16.464,,-18,-23,1064
09:59:16.502,,-17,-23,1062
09:59:16.540,,-18,-23,1063
09:59:16.578,,-17,-23,1062
09:59:16.616,,-18,-23,1063
09:59:16.654,,-18,-23,1062
09:59:16.692,,-17,-23,1063
09:59:16.730,,-17,-23,1062
09:59:16.768,,-17,-23,1063
09:59:16.806,,-17,-23,1063
09:59:16.844,,-17,-24,1062
09:59:16.882,,-17,-23,1062
09:59:16.920,,-17,-23,1063
09:59:16.958,,-17,-23,1062
09:59:16.996,,-17,-23,1062
09:59:17.034,,-18,-24,1064
09:59:17.072,,-18,-23,1064
09:59:17.110,,-17,-23,1062
09:59:17.148,,-17,-24,1062
09:59:17.186,,-17,-23,1062
09:59:17.224,,-19,-22,1064
09:59:17.262,,-17,-24,1062
09:59:17.300,,-18,-25,1064
09:59:17.338,,-18,-21,1064
09:59:17.376,,-17,-24,1061
09:59:17.414,,-18,-23,1063
09:59:17.452,,-17,-23,1062
09:59:17.490,,-18,-23,1063
09:59:17.528,,-16,-23,1062
09:59:17.566,,-17,-24,1060
09:59:17.604,,-19,-22,1064
09:59:17.642,,-19,-23,1063
09:59:17.680,,-16,-22,1062
09:59:17.718,,-18,-24,1062
09:59:17.756,,-17,-22,1063
09:59:17.794,,-18,-23,1063
09:59:17.832,,-17,-23,1062
09:59:17.870,,-17,-23,1063
09:59:17.908,,-18,-24,1061
09:59:17.946,,-17,-23,1062
09:59:17.984,,-17,-19,1058
09:59:18.022,,-19,-28,1065
09:59:18.060,,-17,-23,1061
09:59:18.098,,-18,-24,1062
09:59:18.136,,-28,-32,1061
09:59:18.174,,-9,-18,1061
09:59:18.212,,-17,-19,1060
09:59:18.250,,-17,-24,1064
09:59:18.288,,-19,-24,1061
09:59:18.326,,-18,-24,1062
09:59:18.364,,-18,-24,1062
09:59:18.402,,-18,-23,1062
09:59:18.440,,-17,-23,1062
09:59:18.478,,-19,-25,1061
09:59:18.516,,-18,-24,1062
09:59:18.554,,-19,-24,1062
09:59:18.592,,-18,-24,1061
09:59:18.630,,-18,-24,1061
09:59:18.668,,-19,-24,1064
09:59:18.706,,-19,-26,1058
09:59:18.744,,-17,-23,1064
09:59:18.782,,-19,-24,1062
09:59:18.820,,-18,-24,1061
09:59:18.858,,-18,-24,1062
09:59:18.896,,-18,-24,1062
09:59:18.934,,-19,-24,1063
09:59:18.972,,-18,-25,1062
09:59:19.009,,-18,-24,1062
09:59:19.048,,-19,-24,1062
09:59:19.086,,-18,-24,1062
09:59:19.123,,-18,-24,1062
09:59:19.161,,-18,-24,1062
09:59:19.199,,-18,-24,1062
09:59:19.237,,-18,-24,1062
09:59:19.275,,-18,-24,1062
09:59:19.313,,-18,-24,1062
09:59:19.439,,-19,-24,1063
09:59:19.440,,-19,-24,1063
09:59:19.442,,-19,-24,1063
09:59:19.465,,-18,-24,1062
09:59:19.503,,-18,-24,1062
09:59:19.541,,-18,-24,1062
09:59:19.579,,-17,-24,1063
09:59:19.617,,-18,-24,1062
09:59:19.655,,-18,-24,1062
09:59:19.693,,-18,-23,1063
09:59:19.731,,-18,-24,1062
09:59:19.769,,-19,-24,1062
09:59:19.807,,-18,-24,1062
09:59:19.845,,-18,-24,1062
09:59:19.883,,-18,-23,1063
09:59:19.921,,-18,-24,1062
09:59:19.959,,-18,-24,1063
09:59:19.997,,-19,-24,1062
09:59:20.035,,-17,-24,1062
09:59:20.073,,-18,-24,1063
09:59:20.111,,-18,-23,1062
09:59:20.149,,-18,-24,1062
09:59:20.187,,-18,-23,1062
09:59:20.225,,-17,-24,1062
09:59:20.263,,-17,-24,1058
09:59:20.301,,-20,-23,1065
09:59:20.339,,-19,-24,1064
09:59:20.377,,-18,-23,1062
09:59:20.415,,-19,-24,1062
09:59:20.453,,-18,-24,1062
09:59:20.491,,-18,-23,1063
09:59:20.529,,-18,-24,1061
09:59:20.567,,-18,-24,1062
09:59:20.605,,-19,-24,1062
09:59:20.643,,-18,-24,1063
09:59:20.681,,-18,-24,1061
09:59:20.719,,-18,-24,1062
09:59:20.757,,-18,-24,1063
09:59:20.795,,-17,-24,1062
09:59:20.833,,-18,-24,1062
09:59:20.871,,-18,-24,1062
09:59:20.909,,-18,-23,1062
09:59:20.947,,-18,-23,1062
09:59:20.985,,-18,-24,1062
09:59:21.023,,-18,-23,1062
09:59:21.061,,-18,-24,1062
09:59:21.099,,-18,-24,1062
09:59:21.137,,-19,-24,1062
09:59:21.175,,-18,-24,1062
09:59:21.213,,-18,-23,1063
09:59:21.251,,-18,-24,1062
09:59:21.289,,-18,-24,1062
09:59:21.327,,-18,-24,1062
09:59:21.365,,-18,-23,1062
09:59:21.403,,-18,-23,1062
09:59:21.441,,-18,-23,1062
09:59:21.479,,-18,-24,1062
09:59:21.517,,-18,-24,1062
09:59:21.555,,-18,-23,1062
09:59:21.593,,-18,-24,1062
09:59:21.631,,-18,-23,1062
09:59:21.669,,-18,-24,1062
09:59:21.707,,-18,-24,1063
09:59:21.745,,-17,-23,1062
09:59:21.783,,-18,-23,1062
09:59:21.821,,-18,-24,1062
09:59:21.859,,-18,-24,1062
09:59:21.897,,-19,-23,1063
09:59:21.935,,-18,-24,1062
09:59:21.973,,-18,-23,1062
09:59:22.011,,-18,-24,1062
09:59:22.049,,-18,-24,1062
09:59:22.087,,-17,-24,1062
09:59:22.125,,-18,-23,1062
09:59:22.163,,-18,-23,1063
09:59:22.201,,-18,-24,1062
09:59:22.239,,-18,-23,1062
09:59:22.277,,-18,-24,1062
09:59:22.315,,-18,-24,1062
09:59:22.353,,-18,-24,1062
09:59:22.391,,-17,-23,1062
09:59:22.429,,-18,-23,1063
09:59:22.467,,-18,-23,1062
09:59:22.505,,-19,-23,1063
09:59:22.543,,-18,-23,1062
09:59:22.581,,-18,-23,1062
09:59:22.619,,-18,-23,1062
09:59:22.657,,-18,-23,1062
09:59:22.695,,-18,-24,1063
09:59:22.733,,-18,-24,1062
09:59:22.771,,-18,-24,1062
09:59:22.809,,-18,-23,1062
09:59:22.847,,-18,-24,1062
09:59:22.885,,-18,-24,1062
09:59:22.923,,-18,-24,1062
09:59:22.961,,-18,-23,1062
09:59:22.999,,-18,-23,1063
09:59:23.037,,-18,-24,1062
09:59:23.075,,-18,-24,1063
09:59:23.113,,-18,-24,1062
09:59:23.151,,-18,-24,1062
09:59:23.189,,-18,-23,1062
09:59:23.227,,-18,-23,1062
09:59:23.265,,-18,-23,1062
09:59:23.303,,-18,-24,1062
09:59:23.341,,-18,-23,1062
09:59:23.379,,-18,-24,1062
09:59:23.417,,-18,-24,1062
09:59:23.455,,-18,-24,1062
09:59:23.493,,-18,-24,1062
09:59:23.531,,-19,-24,1062
09:59:23.569,,-18,-24,1062
09:59:23.607,,-18,-23,1063
09:59:23.645,,-18,-24,1062
09:59:23.683,,-18,-24,1062
09:59:23.721,,-18,-24,1062
09:59:23.759,,-18,-24,1063
09:59:23.797,,-18,-24,1062
09:59:23.835,,-18,-24,1063
09:59:23.873,,-18,-23,1063
09:59:23.911,,-18,-24,1062
09:59:23.949,,-18,-24,1062
09:59:23.987,,-18,-24,1062
09:59:24.025,,-18,-24,1062
09:59:24.063,,-18,-24,1062
09:59:24.101,,-18,-24,1062
09:59:24.139,,-18,-24,1062
09:59:24.177,,-18,-24,1062
09:59:24.215,,-18,-24,1063
09:59:24.253,,-18,-23,1062
09:59:24.291,,-18,-23,1063
09:59:24.329,,-18,-24,1062
09:59:24.367,,-18,-24,1062
09:59:24.405,,-18,-24,1062
09:59:24.443,,-18,-24,1063
09:59:24.481,,-19,-24,1062
09:59:24.519,,-18,-24,1062
09:59:24.557,,-19,-23,1062
09:59:24.595,,-18,-23,1063
09:59:24.633,,-18,-23,1062
09:59:24.671,,-18,-24,1062
09:59:24.709,,-18,-24,1063
09:59:24.747,,-18,-23,1063
09:59:24.785,,-18,-23,1062
09:59:24.823,,-17,-23,1063
09:59:24.861,,-18,-25,1062
09:59:24.899,,-19,-22,1063
09:59:24.937,,-18,-23,1062
09:59:24.975,,-18,-24,1062
09:59:25.013,,-18,-24,1062
09:59:25.051,,-18,-24,1062
09:59:25.089,,-18,-24,1063
09:59:25.210,,-18,-23,1063
09:59:25.211,,-18,-23,1063
09:59:25.212,,-18,-23,1063
09:59:25.241,,-18,-24,1062
09:59:25.279,,-18,-23,1062
09:59:25.317,,-18,-24,1062
09:59:25.355,,-18,-23,1063
09:59:25.393,,-18,-23,1062
09:59:25.431,,-18,-23,1063
09:59:25.469,,-18,-24,1062
09:59:25.507,,-18,-23,1062
09:59:25.545,,-18,-24,1062
09:59:25.583,,-18,-24,1063
09:59:25.621,,-18,-24,1062
09:59:25.659,,-18,-23,1063
09:59:25.697,,-18,-23,1063
09:59:25.735,,-18,-23,1063
09:59:25.773,,-17,-24,1062
09:59:25.811,,-18,-23,1062
09:59:25.849,,-18,-24,1062
09:59:25.887,,-18,-24,1063
09:59:25.925,,-18,-23,1063
09:59:25.963,,-18,-23,1063
09:59:26.001,,-18,-24,1063
09:59:26.039,,-18,-24,1063
09:59:26.077,,-18,-23,1063
09:59:26.115,,-18,-23,1062
09:59:26.153,,-18,-24,1063
09:59:26.191,,-17,-24,1063
09:59:26.229,,-18,-23,1063
09:59:26.267,,-18,-23,1062
09:59:26.305,,-18,-23,1063
09:59:26.343,,-18,-23,1063
09:59:26.381,,-18,-23,1062
09:59:26.419,,-18,-23,1063
09:59:26.457,,-18,-23,1063
09:59:26.495,,-18,-24,1063
09:59:26.533,,-18,-24,1063
09:59:26.571,,-18,-23,1063
09:59:26.609,,-18,-23,1063
09:59:26.647,,-18,-23,1063
09:59:26.685,,-18,-23,1062
09:59:26.723,,-18,-23,1063
09:59:26.761,,-18,-23,1062
09:59:26.799,,-18,-24,1063
09:59:26.837,,-18,-24,1063
09:59:26.875,,-18,-23,1063
09:59:26.913,,-18,-24,1063
09:59:26.951,,-17,-24,1063
09:59:26.989,,-18,-23,1064
09:59:27.027,,-18,-24,1062
09:59:27.065,,-18,-24,1063
09:59:27.103,,-18,-23,1063
09:59:27.141,,-18,-24,1063
09:59:27.179,,-17,-24,1063
09:59:27.217,,-18,-23,1063
09:59:27.255,,-18,-23,1063
09:59:27.293,,-18,-23,1063
09:59:27.331,,-18,-23,1063
09:59:27.369,,-18,-23,1063
09:59:27.407,,-18,-24,1063
09:59:27.445,,-19,-21,1065
09:59:27.483,,-18,-25,1060
09:59:27.521,,-18,-25,1063
09:59:27.559,,-17,-23,1063
09:59:27.597,,-19,-24,1063
09:59:27.635,,-18,-23,1062
09:59:27.673,,-18,-24,1063
09:59:27.711,,-18,-24,1063
09:59:27.749,,-18,-24,1063
09:59:27.787,,-18,-24,1063
09:59:27.825,,-18,-24,1063
09:59:27.863,,-18,-23,1062
09:59:27.901,,-18,-24,1063
09:59:27.939,,-18,-24,1062
09:59:27.977,,-19,-24,1063
09:59:28.015,,-18,-23,1063
09:59:28.053,,-18,-24,1063
09:59:28.091,,-18,-23,1063
09:59:28.129,,-18,-23,1063
09:59:28.167,,-18,-23,1063
09:59:28.205,,-17,-23,1063
09:59:28.243,,-18,-23,1063
09:59:28.281,,-18,-23,1062
09:59:28.319,,-18,-24,1064
09:59:28.357,,-18,-23,1063
09:59:28.395,,-18,-24,1062
09:59:28.432,,-18,-24,1063
09:59:28.470,,-18,-24,1062
09:59:28.508,,-19,-23,1063
09:59:28.546,,-18,-24,1062
09:59:28.584,,-18,-24,1063
09:59:28.622,,-18,-23,1063
09:59:28.660,,-18,-24,1063
09:59:28.698,,-18,-24,1063
09:59:28.736,,-18,-23,1063
09:59:28.774,,-18,-24,1062
09:59:28.812,,-18,-24,1063
09:59:28.850,,-18,-23,1063
09:59:28.888,,-18,-24,1063
09:59:28.926,,-18,-24,1063
09:59:28.964,,-18,-24,1062
09:59:29.002,,-18,-24,1062
09:59:29.040,,-17,-23,1062
09:59:29.078,,-18,-23,1063
09:59:29.116,,-18,-24,1062
09:59:29.154,,-18,-24,1063
09:59:29.192,,-18,-23,1062
09:59:29.230,,-18,-24,1062
09:59:29.268,,-18,-23,1062
09:59:29.306,,-18,-24,1062
09:59:29.344,,-19,-24,1063
09:59:29.382,,-18,-24,1062
09:59:29.420,,-18,-24,1062
09:59:29.458,,-18,-23,1062
09:59:29.496,,-18,-24,1062
09:59:29.534,,-18,-23,1062
09:59:29.572,,-18,-23,1062
09:59:29.610,,-18,-24,1063
09:59:29.648,,-18,-24,1062
09:59:29.686,,-18,-23,1062
09:59:29.724,,-18,-24,1062
09:59:29.762,,-18,-23,1063
09:59:29.800,,-18,-23,1062
09:59:29.838,,-18,-24,1063
09:59:29.876,,-18,-23,1062
09:59:29.914,,-18,-23,1062
09:59:29.952,,-18,-24,1063
09:59:29.990,,-18,-23,1062
09:59:30.028,,-18,-24,1063
09:59:30.066,,-18,-23,1063
09:59:30.104,,-18,-24,1063
09:59:30.142,,-18,-24,1063
09:59:30.180,,-18,-24,1062
09:59:30.218,,-18,-23,1062
09:59:30.256,,-18,-23,1063
09:59:30.294,,-18,-23,1063
09:59:30.332,,-18,-23,1063
09:59:30.370,,-18,-24,1062
09:59:30.408,,-18,-24,1062
09:59:30.446,,-18,-23,1063
09:59:30.484,,-18,-24,1061
09:59:30.522,,-18,-23,1064
09:59:30.560,,-18,-23,1062
09:59:30.598,,-18,-24,1062
09:59:30.636,,-18,-24,1063
09:59:30.674,,-18,-23,1062
09:59:30.712,,-18,-24,1063
09:59:30.750,,-18,-23,1062
09:59:30.788,,-18,-24,1062
09:59:30.826,,-18,-24,1063
09:59:30.864,,-18,-23,1062
09:59:30.990,,-18,-23,1063
09:59:30.991,,-18,-23,1063
09:59:30.992,,-18,-23,1063
09:59:31.016,,-18,-24,1062
09:59:31.054,,-18,-24,1062
09:59:31.092,,-18,-23,1062
09:59:31.130,,-18,-24,1062
09:59:31.168,,-18,-23,1063
09:59:31.206,,-18,-24,1062
09:59:31.244,,-18,-23,1063
09:59:31.282,,-18,-24,1062
09:59:31.320,,-18,-24,1062
09:59:31.358,,-18,-23,1062
09:59:31.396,,-18,-24,1062
09:59:31.434,,-18,-23,1061
09:59:31.472,,-17,-23,1063
09:59:31.510,,-18,-23,1062
09:59:31.548,,-18,-24,1062
09:59:31.586,,-18,-23,1062
09:59:31.624,,-18,-23,1063
09:59:31.662,,-18,-24,1062
09:59:31.700,,-18,-23,1062
09:59:31.738,,-18,-24,1063
09:59:31.776,,-18,-23,1062
09:59:31.814,,-18,-24,1062
09:59:31.852,,-18,-23,1062
09:59:31.890,,-18,-23,1062
09:59:31.928,,-18,-23,1063
09:59:31.966,,-19,-23,1062
09:59:32.004,,-18,-24,1062
09:59:32.042,,-18,-24,1062
09:59:32.080,,-18,-23,1062
09:59:32.118,,-18,-23,1062
09:59:32.156,,-18,-23,1062
09:59:32.194,,-18,-23,1062
09:59:32.232,,-18,-24,1062
09:59:32.270,,-18,-24,1062
09:59:32.308,,-18,-24,1062
09:59:32.346,,-19,-24,1062
09:59:32.384,,-18,-23,1062
09:59:32.422,,-18,-24,1062
09:59:32.460,,-18,-24,1062
09:59:32.498,,-18,-23,1062
09:59:32.536,,-18,-24,1062
09:59:32.574,,-18,-23,1062
09:59:32.612,,-18,-23,1062
09:59:32.650,,-18,-23,1062
09:59:32.688,,-18,-24,1063
09:59:32.726,,-18,-23,1062
09:59:32.764,,-17,-24,1062
09:59:32.802,,-18,-23,1062
09:59:32.840,,-18,-23,1062
09:59:32.878,,-18,-23,1062
09:59:32.916,,-18,-23,1062
09:59:32.954,,-18,-23,1062
09:59:32.992,,-19,-23,1062
09:59:33.030,,-18,-24,1062
09:59:33.068,,-18,-23,1061
09:59:33.106,,-17,-23,1062
09:59:33.144,,-18,-24,1061
09:59:33.182,,-18,-23,1062
09:59:33.220,,-18,-24,1063
09:59:33.258,,-18,-23,1062
09:59:33.296,,-17,-24,1061
09:59:33.334,,-18,-23,1061
09:59:33.372,,-18,-23,1062
09:59:33.410,,-18,-23,1061
09:59:33.448,,-18,-24,1062
09:59:33.486,,-18,-23,1062
09:59:33.524,,-18,-24,1062
09:59:33.562,,-17,-24,1061
09:59:33.600,,-18,-23,1062
09:59:33.638,,-18,-23,1062
09:59:33.676,,-18,-24,1062
09:59:33.714,,-18,-23,1062
09:59:33.752,,-18,-24,1062
09:59:33.790,,-18,-24,1062
09:59:33.828,,-18,-23,1062
09:59:33.866,,-19,-24,1062
09:59:33.904,,-18,-23,1062
09:59:33.942,,-18,-23,1063
09:59:33.980,,-18,-24,1061
09:59:34.018,,-18,-23,1062
09:59:34.056,,-18,-23,1062
09:59:34.094,,-18,-23,1062
09:59:34.132,,-18,-23,1063
09:59:34.170,,-18,-24,1062
09:59:34.208,,-18,-24,1062
09:59:34.246,,-18,-24,1062
09:59:34.284,,-18,-23,1062
09:59:34.322,,-18,-23,1062
09:59:34.360,,-18,-24,1062
09:59:34.398,,-18,-24,1062
09:59:34.436,,-18,-24,1062
09:59:34.474,,-18,-23,1062
09:59:34.512,,-18,-23,1063
09:59:34.550,,-18,-24,1062
09:59:34.588,,-18,-24,1062
09:59:34.626,,-18,-24,1063
09:59:34.664,,-18,-24,1063
09:59:34.702,,-18,-24,1062
09:59:34.740,,-18,-24,1063
09:59:34.778,,-18,-23,1062
09:59:34.816,,-18,-24,1062
09:59:34.854,,-18,-24,1063
09:59:34.892,,-18,-23,1062
09:59:34.930,,-18,-23,1063
09:59:34.968,,-18,-23,1063
09:59:35.006,,-18,-24,1063
09:59:35.044,,-18,-24,1063
09:59:35.082,,-18,-23,1063
09:59:35.120,,-18,-24,1063
09:59:35.158,,-18,-23,1062
09:59:35.196,,-18,-24,1063
09:59:35.234,,-18,-23,1062
09:59:35.272,,-18,-23,1062
